success,timeout,failed_images,failed_audio,failed_video,trial_type,trial_index,time_elapsed,internal_node_id,run_id,condition,recorded_at,source_code_version,user_agent,device,browser,browser_version,platform,platform_version,rt,response,task,correct_response,correct,pred_class,pred_concept,question_order
TRUE,FALSE,[],[],[],preload,0,955,0.0-0.0,1,1,2023-03-14 13:34:48,27d22b55943edf8b2830e96048e50989,"Mozilla/5.0 (Macintosh; Intel Mac OS X 10_15_7) AppleWebKit/605.1.15 (KHTML, like Gecko) Version/16.1 Safari/605.1.15",Macintosh,Safari,16.1,OS X,10_15_7,,,,,,,,
,,,,,html-button-response,1,3359,0.0-1.0,1,1,2023-03-14 13:34:48,27d22b55943edf8b2830e96048e50989,"Mozilla/5.0 (Macintosh; Intel Mac OS X 10_15_7) AppleWebKit/605.1.15 (KHTML, like Gecko) Version/16.1 Safari/605.1.15",Macintosh,Safari,16.1,OS X,10_15_7,2402,0,,,,,,
,,,,,html-button-response,2,10559,0.0-2.0,1,1,2023-03-14 13:34:48,27d22b55943edf8b2830e96048e50989,"Mozilla/5.0 (Macintosh; Intel Mac OS X 10_15_7) AppleWebKit/605.1.15 (KHTML, like Gecko) Version/16.1 Safari/605.1.15",Macintosh,Safari,16.1,OS X,10_15_7,7198,0,,,,,,
,,,,,html-button-response,3,96847,0.0-3.0,1,1,2023-03-14 13:34:48,27d22b55943edf8b2830e96048e50989,"Mozilla/5.0 (Macintosh; Intel Mac OS X 10_15_7) AppleWebKit/605.1.15 (KHTML, like Gecko) Version/16.1 Safari/605.1.15",Macintosh,Safari,16.1,OS X,10_15_7,86285,0,,,,,,
,,,,,html-keyboard-response,4,98604,0.0-4.0-0.0,1,1,2023-03-14 13:34:48,27d22b55943edf8b2830e96048e50989,"Mozilla/5.0 (Macintosh; Intel Mac OS X 10_15_7) AppleWebKit/605.1.15 (KHTML, like Gecko) Version/16.1 Safari/605.1.15",Macintosh,Safari,16.1,OS X,10_15_7,null,null,fixation,,,,,
,,,,,image-button-response,5,112427,0.0-4.0-1.0,1,1,2023-03-14 13:34:48,27d22b55943edf8b2830e96048e50989,"Mozilla/5.0 (Macintosh; Intel Mac OS X 10_15_7) AppleWebKit/605.1.15 (KHTML, like Gecko) Version/16.1 Safari/605.1.15",Macintosh,Safari,16.1,OS X,10_15_7,13810,4,response_1,Bombus lucorum,TRUE,,,
,,,,,html-keyboard-response,6,113181,0.0-4.0-0.1,1,1,2023-03-14 13:34:48,27d22b55943edf8b2830e96048e50989,"Mozilla/5.0 (Macintosh; Intel Mac OS X 10_15_7) AppleWebKit/605.1.15 (KHTML, like Gecko) Version/16.1 Safari/605.1.15",Macintosh,Safari,16.1,OS X,10_15_7,null,null,fixation,,,,,
,,,,,image-button-response,7,124461,0.0-4.0-1.1,1,1,2023-03-14 13:34:48,27d22b55943edf8b2830e96048e50989,"Mozilla/5.0 (Macintosh; Intel Mac OS X 10_15_7) AppleWebKit/605.1.15 (KHTML, like Gecko) Version/16.1 Safari/605.1.15",Macintosh,Safari,16.1,OS X,10_15_7,11269,0,response_1,Andrena bicolor,TRUE,,,
,,,,,html-keyboard-response,8,124963,0.0-4.0-0.2,1,1,2023-03-14 13:34:48,27d22b55943edf8b2830e96048e50989,"Mozilla/5.0 (Macintosh; Intel Mac OS X 10_15_7) AppleWebKit/605.1.15 (KHTML, like Gecko) Version/16.1 Safari/605.1.15",Macintosh,Safari,16.1,OS X,10_15_7,null,null,fixation,,,,,
,,,,,image-button-response,9,139794,0.0-4.0-1.2,1,1,2023-03-14 13:34:48,27d22b55943edf8b2830e96048e50989,"Mozilla/5.0 (Macintosh; Intel Mac OS X 10_15_7) AppleWebKit/605.1.15 (KHTML, like Gecko) Version/16.1 Safari/605.1.15",Macintosh,Safari,16.1,OS X,10_15_7,14818,4,response_1,Bombus pratorum,FALSE,,,
,,,,,html-keyboard-response,10,140297,0.0-4.0-0.3,1,1,2023-03-14 13:34:48,27d22b55943edf8b2830e96048e50989,"Mozilla/5.0 (Macintosh; Intel Mac OS X 10_15_7) AppleWebKit/605.1.15 (KHTML, like Gecko) Version/16.1 Safari/605.1.15",Macintosh,Safari,16.1,OS X,10_15_7,null,null,fixation,,,,,
,,,,,image-button-response,11,146094,0.0-4.0-1.3,1,1,2023-03-14 13:34:48,27d22b55943edf8b2830e96048e50989,"Mozilla/5.0 (Macintosh; Intel Mac OS X 10_15_7) AppleWebKit/605.1.15 (KHTML, like Gecko) Version/16.1 Safari/605.1.15",Macintosh,Safari,16.1,OS X,10_15_7,5786,1,response_1,Andrena flavipes,TRUE,,,
,,,,,html-keyboard-response,12,146346,0.0-4.0-0.4,1,1,2023-03-14 13:34:48,27d22b55943edf8b2830e96048e50989,"Mozilla/5.0 (Macintosh; Intel Mac OS X 10_15_7) AppleWebKit/605.1.15 (KHTML, like Gecko) Version/16.1 Safari/605.1.15",Macintosh,Safari,16.1,OS X,10_15_7,null,null,fixation,,,,,
,,,,,image-button-response,13,183277,0.0-4.0-1.4,1,1,2023-03-14 13:34:48,27d22b55943edf8b2830e96048e50989,"Mozilla/5.0 (Macintosh; Intel Mac OS X 10_15_7) AppleWebKit/605.1.15 (KHTML, like Gecko) Version/16.1 Safari/605.1.15",Macintosh,Safari,16.1,OS X,10_15_7,36920,4,response_1,Bombus lucorum,TRUE,,,
,,,,,html-keyboard-response,14,183530,0.0-4.0-0.5,1,1,2023-03-14 13:34:48,27d22b55943edf8b2830e96048e50989,"Mozilla/5.0 (Macintosh; Intel Mac OS X 10_15_7) AppleWebKit/605.1.15 (KHTML, like Gecko) Version/16.1 Safari/605.1.15",Macintosh,Safari,16.1,OS X,10_15_7,null,null,fixation,,,,,
,,,,,image-button-response,15,187996,0.0-4.0-1.5,1,1,2023-03-14 13:34:48,27d22b55943edf8b2830e96048e50989,"Mozilla/5.0 (Macintosh; Intel Mac OS X 10_15_7) AppleWebKit/605.1.15 (KHTML, like Gecko) Version/16.1 Safari/605.1.15",Macintosh,Safari,16.1,OS X,10_15_7,4456,5,response_1,Bombus pratorum,TRUE,,,
,,,,,html-button-response,16,192844,0.0-5.0,1,1,2023-03-14 13:34:48,27d22b55943edf8b2830e96048e50989,"Mozilla/5.0 (Macintosh; Intel Mac OS X 10_15_7) AppleWebKit/605.1.15 (KHTML, like Gecko) Version/16.1 Safari/605.1.15",Macintosh,Safari,16.1,OS X,10_15_7,4845,0,,,,,,
,,,,,html-keyboard-response,17,193347,0.0-6.0-0.0,1,1,2023-03-14 13:34:48,27d22b55943edf8b2830e96048e50989,"Mozilla/5.0 (Macintosh; Intel Mac OS X 10_15_7) AppleWebKit/605.1.15 (KHTML, like Gecko) Version/16.1 Safari/605.1.15",Macintosh,Safari,16.1,OS X,10_15_7,null,null,fixation,,,,,
,,,,,image-button-response,18,203627,0.0-6.0-1.0,1,1,2023-03-14 13:34:48,27d22b55943edf8b2830e96048e50989,"Mozilla/5.0 (Macintosh; Intel Mac OS X 10_15_7) AppleWebKit/605.1.15 (KHTML, like Gecko) Version/16.1 Safari/605.1.15",Macintosh,Safari,16.1,OS X,10_15_7,10269,2,response_pred,Andrena fulva,TRUE,Andrena fulva,it is fuzzy dark orange and it has a smooth shiny dark brown texture,
,,,,,html-keyboard-response,19,203881,0.0-6.0-0.1,1,1,2023-03-14 13:34:48,27d22b55943edf8b2830e96048e50989,"Mozilla/5.0 (Macintosh; Intel Mac OS X 10_15_7) AppleWebKit/605.1.15 (KHTML, like Gecko) Version/16.1 Safari/605.1.15",Macintosh,Safari,16.1,OS X,10_15_7,null,null,fixation,,,,,
,,,,,image-button-response,20,232277,0.0-6.0-1.1,1,1,2023-03-14 13:34:48,27d22b55943edf8b2830e96048e50989,"Mozilla/5.0 (Macintosh; Intel Mac OS X 10_15_7) AppleWebKit/605.1.15 (KHTML, like Gecko) Version/16.1 Safari/605.1.15",Macintosh,Safari,16.1,OS X,10_15_7,28386,0,response_pred,Andrena bicolor,TRUE,Andrena bicolor,it is fuzzy dark orange and it has a smooth shiny dark brown texture,
,,,,,html-keyboard-response,21,232780,0.0-6.0-0.2,1,1,2023-03-14 13:34:48,27d22b55943edf8b2830e96048e50989,"Mozilla/5.0 (Macintosh; Intel Mac OS X 10_15_7) AppleWebKit/605.1.15 (KHTML, like Gecko) Version/16.1 Safari/605.1.15",Macintosh,Safari,16.1,OS X,10_15_7,null,null,fixation,,,,,
,,,,,image-button-response,22,240011,0.0-6.0-1.2,1,1,2023-03-14 13:34:48,27d22b55943edf8b2830e96048e50989,"Mozilla/5.0 (Macintosh; Intel Mac OS X 10_15_7) AppleWebKit/605.1.15 (KHTML, like Gecko) Version/16.1 Safari/605.1.15",Macintosh,Safari,16.1,OS X,10_15_7,7215,1,response_pred,Andrena flavipes,TRUE,Andrena flavipes,it has a smooth shiny dark brown texture,
,,,,,html-keyboard-response,23,240514,0.0-6.0-0.3,1,1,2023-03-14 13:34:48,27d22b55943edf8b2830e96048e50989,"Mozilla/5.0 (Macintosh; Intel Mac OS X 10_15_7) AppleWebKit/605.1.15 (KHTML, like Gecko) Version/16.1 Safari/605.1.15",Macintosh,Safari,16.1,OS X,10_15_7,null,null,fixation,,,,,
,,,,,image-button-response,24,250894,0.0-6.0-1.3,1,1,2023-03-14 13:34:48,27d22b55943edf8b2830e96048e50989,"Mozilla/5.0 (Macintosh; Intel Mac OS X 10_15_7) AppleWebKit/605.1.15 (KHTML, like Gecko) Version/16.1 Safari/605.1.15",Macintosh,Safari,16.1,OS X,10_15_7,10370,4,response_pred,Bombus lucorum,TRUE,Bombus hortorum,it has fuzzy yellow and black stripes,
,,,,,html-keyboard-response,25,251147,0.0-6.0-0.4,1,1,2023-03-14 13:34:48,27d22b55943edf8b2830e96048e50989,"Mozilla/5.0 (Macintosh; Intel Mac OS X 10_15_7) AppleWebKit/605.1.15 (KHTML, like Gecko) Version/16.1 Safari/605.1.15",Macintosh,Safari,16.1,OS X,10_15_7,null,null,fixation,,,,,
,,,,,image-button-response,26,271711,0.0-6.0-1.4,1,1,2023-03-14 13:34:48,27d22b55943edf8b2830e96048e50989,"Mozilla/5.0 (Macintosh; Intel Mac OS X 10_15_7) AppleWebKit/605.1.15 (KHTML, like Gecko) Version/16.1 Safari/605.1.15",Macintosh,Safari,16.1,OS X,10_15_7,20551,3,response_pred,Bombus hortorum,TRUE,Bombus pratorum,it has fuzzy yellow and black stripes,
,,,,,html-keyboard-response,27,272214,0.0-6.0-0.5,1,1,2023-03-14 13:34:48,27d22b55943edf8b2830e96048e50989,"Mozilla/5.0 (Macintosh; Intel Mac OS X 10_15_7) AppleWebKit/605.1.15 (KHTML, like Gecko) Version/16.1 Safari/605.1.15",Macintosh,Safari,16.1,OS X,10_15_7,null,null,fixation,,,,,
,,,,,image-button-response,28,279311,0.0-6.0-1.5,1,1,2023-03-14 13:34:48,27d22b55943edf8b2830e96048e50989,"Mozilla/5.0 (Macintosh; Intel Mac OS X 10_15_7) AppleWebKit/605.1.15 (KHTML, like Gecko) Version/16.1 Safari/605.1.15",Macintosh,Safari,16.1,OS X,10_15_7,7086,5,response_pred,Bombus pratorum,TRUE,Bombus lucorum,it has fuzzy yellow and black stripes,
,,,,,html-button-response,29,282360,0.0-7.0,1,1,2023-03-14 13:34:48,27d22b55943edf8b2830e96048e50989,"Mozilla/5.0 (Macintosh; Intel Mac OS X 10_15_7) AppleWebKit/605.1.15 (KHTML, like Gecko) Version/16.1 Safari/605.1.15",Macintosh,Safari,16.1,OS X,10_15_7,3046,0,,,,,,
,,,,,html-keyboard-response,30,282863,0.0-8.0-0.0,1,1,2023-03-14 13:34:48,27d22b55943edf8b2830e96048e50989,"Mozilla/5.0 (Macintosh; Intel Mac OS X 10_15_7) AppleWebKit/605.1.15 (KHTML, like Gecko) Version/16.1 Safari/605.1.15",Macintosh,Safari,16.1,OS X,10_15_7,null,null,fixation,,,,,
,,,,,image-button-response,31,310177,0.0-8.0-1.0,1,1,2023-03-14 13:34:48,27d22b55943edf8b2830e96048e50989,"Mozilla/5.0 (Macintosh; Intel Mac OS X 10_15_7) AppleWebKit/605.1.15 (KHTML, like Gecko) Version/16.1 Safari/605.1.15",Macintosh,Safari,16.1,OS X,10_15_7,27301,1,response_2,Andrena flavipes,TRUE,,,
,,,,,html-keyboard-response,32,310429,0.0-8.0-0.1,1,1,2023-03-14 13:34:48,27d22b55943edf8b2830e96048e50989,"Mozilla/5.0 (Macintosh; Intel Mac OS X 10_15_7) AppleWebKit/605.1.15 (KHTML, like Gecko) Version/16.1 Safari/605.1.15",Macintosh,Safari,16.1,OS X,10_15_7,null,null,fixation,,,,,
,,,,,image-button-response,33,315345,0.0-8.0-1.1,1,1,2023-03-14 13:34:48,27d22b55943edf8b2830e96048e50989,"Mozilla/5.0 (Macintosh; Intel Mac OS X 10_15_7) AppleWebKit/605.1.15 (KHTML, like Gecko) Version/16.1 Safari/605.1.15",Macintosh,Safari,16.1,OS X,10_15_7,4905,3,response_2,Bombus hortorum,TRUE,,,
,,,,,html-keyboard-response,34,316100,0.0-8.0-0.2,1,1,2023-03-14 13:34:48,27d22b55943edf8b2830e96048e50989,"Mozilla/5.0 (Macintosh; Intel Mac OS X 10_15_7) AppleWebKit/605.1.15 (KHTML, like Gecko) Version/16.1 Safari/605.1.15",Macintosh,Safari,16.1,OS X,10_15_7,null,null,fixation,,,,,
,,,,,image-button-response,35,327778,0.0-8.0-1.2,1,1,2023-03-14 13:34:48,27d22b55943edf8b2830e96048e50989,"Mozilla/5.0 (Macintosh; Intel Mac OS X 10_15_7) AppleWebKit/605.1.15 (KHTML, like Gecko) Version/16.1 Safari/605.1.15",Macintosh,Safari,16.1,OS X,10_15_7,11669,0,response_2,Andrena bicolor,TRUE,,,
,,,,,html-keyboard-response,36,328031,0.0-8.0-0.3,1,1,2023-03-14 13:34:48,27d22b55943edf8b2830e96048e50989,"Mozilla/5.0 (Macintosh; Intel Mac OS X 10_15_7) AppleWebKit/605.1.15 (KHTML, like Gecko) Version/16.1 Safari/605.1.15",Macintosh,Safari,16.1,OS X,10_15_7,null,null,fixation,,,,,
,,,,,image-button-response,37,336512,0.0-8.0-1.3,1,1,2023-03-14 13:34:48,27d22b55943edf8b2830e96048e50989,"Mozilla/5.0 (Macintosh; Intel Mac OS X 10_15_7) AppleWebKit/605.1.15 (KHTML, like Gecko) Version/16.1 Safari/605.1.15",Macintosh,Safari,16.1,OS X,10_15_7,8469,5,response_2,Andrena fulva,FALSE,,,
,,,,,html-keyboard-response,38,337014,0.0-8.0-0.4,1,1,2023-03-14 13:34:48,27d22b55943edf8b2830e96048e50989,"Mozilla/5.0 (Macintosh; Intel Mac OS X 10_15_7) AppleWebKit/605.1.15 (KHTML, like Gecko) Version/16.1 Safari/605.1.15",Macintosh,Safari,16.1,OS X,10_15_7,null,null,fixation,,,,,
,,,,,image-button-response,39,343594,0.0-8.0-1.4,1,1,2023-03-14 13:34:48,27d22b55943edf8b2830e96048e50989,"Mozilla/5.0 (Macintosh; Intel Mac OS X 10_15_7) AppleWebKit/605.1.15 (KHTML, like Gecko) Version/16.1 Safari/605.1.15",Macintosh,Safari,16.1,OS X,10_15_7,6571,3,response_2,Bombus hortorum,TRUE,,,
,,,,,html-keyboard-response,40,344097,0.0-8.0-0.5,1,1,2023-03-14 13:34:48,27d22b55943edf8b2830e96048e50989,"Mozilla/5.0 (Macintosh; Intel Mac OS X 10_15_7) AppleWebKit/605.1.15 (KHTML, like Gecko) Version/16.1 Safari/605.1.15",Macintosh,Safari,16.1,OS X,10_15_7,null,null,fixation,,,,,
,,,,,image-button-response,41,350794,0.0-8.0-1.5,1,1,2023-03-14 13:34:48,27d22b55943edf8b2830e96048e50989,"Mozilla/5.0 (Macintosh; Intel Mac OS X 10_15_7) AppleWebKit/605.1.15 (KHTML, like Gecko) Version/16.1 Safari/605.1.15",Macintosh,Safari,16.1,OS X,10_15_7,6686,2,response_2,Andrena fulva,TRUE,,,
,,,,,html-button-response,42,352260,0.0-9.0,1,1,2023-03-14 13:34:48,27d22b55943edf8b2830e96048e50989,"Mozilla/5.0 (Macintosh; Intel Mac OS X 10_15_7) AppleWebKit/605.1.15 (KHTML, like Gecko) Version/16.1 Safari/605.1.15",Macintosh,Safari,16.1,OS X,10_15_7,1463,0,,,,,,
,,,,,survey-multi-choice,43,383484,0.0-10.0,1,1,2023-03-14 13:34:48,27d22b55943edf8b2830e96048e50989,"Mozilla/5.0 (Macintosh; Intel Mac OS X 10_15_7) AppleWebKit/605.1.15 (KHTML, like Gecko) Version/16.1 Safari/605.1.15",Macintosh,Safari,16.1,OS X,10_15_7,31219,"{""support_exp"":""strongly agree"",""causal_exp"":""strongly agree"",""know_exp"":""strongly agree"",""understand_exp"":""strongly agree""}",,,,,,"[0,1,2,3]"
,,,,,html-button-response,44,384728,0.0-11.0,1,1,2023-03-14 13:34:48,27d22b55943edf8b2830e96048e50989,"Mozilla/5.0 (Macintosh; Intel Mac OS X 10_15_7) AppleWebKit/605.1.15 (KHTML, like Gecko) Version/16.1 Safari/605.1.15",Macintosh,Safari,16.1,OS X,10_15_7,1241,0,,,,,,
TRUE,FALSE,[],[],[],preload,0,329,0.0-0.0,10,1,2023-03-14 19:11:28,27d22b55943edf8b2830e96048e50989,"Mozilla/5.0 (Macintosh; Intel Mac OS X 10_15_7) AppleWebKit/605.1.15 (KHTML, like Gecko) Version/16.3 Safari/605.1.15",Macintosh,Safari,16.3,OS X,10_15_7,,,,,,,,
,,,,,html-button-response,1,1268,0.0-1.0,10,1,2023-03-14 19:11:28,27d22b55943edf8b2830e96048e50989,"Mozilla/5.0 (Macintosh; Intel Mac OS X 10_15_7) AppleWebKit/605.1.15 (KHTML, like Gecko) Version/16.3 Safari/605.1.15",Macintosh,Safari,16.3,OS X,10_15_7,937,0,,,,,,
,,,,,html-button-response,2,2522,0.0-2.0,10,1,2023-03-14 19:11:28,27d22b55943edf8b2830e96048e50989,"Mozilla/5.0 (Macintosh; Intel Mac OS X 10_15_7) AppleWebKit/605.1.15 (KHTML, like Gecko) Version/16.3 Safari/605.1.15",Macintosh,Safari,16.3,OS X,10_15_7,1253,0,,,,,,
,,,,,html-button-response,3,140636,0.0-3.0,10,1,2023-03-14 19:11:28,27d22b55943edf8b2830e96048e50989,"Mozilla/5.0 (Macintosh; Intel Mac OS X 10_15_7) AppleWebKit/605.1.15 (KHTML, like Gecko) Version/16.3 Safari/605.1.15",Macintosh,Safari,16.3,OS X,10_15_7,138114,0,,,,,,
,,,,,html-keyboard-response,4,142143,0.0-4.0-0.0,10,1,2023-03-14 19:11:28,27d22b55943edf8b2830e96048e50989,"Mozilla/5.0 (Macintosh; Intel Mac OS X 10_15_7) AppleWebKit/605.1.15 (KHTML, like Gecko) Version/16.3 Safari/605.1.15",Macintosh,Safari,16.3,OS X,10_15_7,null,null,fixation,,,,,
,,,,,image-button-response,5,186286,0.0-4.0-1.0,10,1,2023-03-14 19:11:28,27d22b55943edf8b2830e96048e50989,"Mozilla/5.0 (Macintosh; Intel Mac OS X 10_15_7) AppleWebKit/605.1.15 (KHTML, like Gecko) Version/16.3 Safari/605.1.15",Macintosh,Safari,16.3,OS X,10_15_7,44126,2,response_1,Bombus lucorum,FALSE,,,
,,,,,html-keyboard-response,6,187039,0.0-4.0-0.1,10,1,2023-03-14 19:11:28,27d22b55943edf8b2830e96048e50989,"Mozilla/5.0 (Macintosh; Intel Mac OS X 10_15_7) AppleWebKit/605.1.15 (KHTML, like Gecko) Version/16.3 Safari/605.1.15",Macintosh,Safari,16.3,OS X,10_15_7,null,null,fixation,,,,,
,,,,,image-button-response,7,204269,0.0-4.0-1.1,10,1,2023-03-14 19:11:28,27d22b55943edf8b2830e96048e50989,"Mozilla/5.0 (Macintosh; Intel Mac OS X 10_15_7) AppleWebKit/605.1.15 (KHTML, like Gecko) Version/16.3 Safari/605.1.15",Macintosh,Safari,16.3,OS X,10_15_7,17214,2,response_1,Andrena fulva,TRUE,,,
,,,,,html-keyboard-response,8,205022,0.0-4.0-0.2,10,1,2023-03-14 19:11:28,27d22b55943edf8b2830e96048e50989,"Mozilla/5.0 (Macintosh; Intel Mac OS X 10_15_7) AppleWebKit/605.1.15 (KHTML, like Gecko) Version/16.3 Safari/605.1.15",Macintosh,Safari,16.3,OS X,10_15_7,null,null,fixation,,,,,
,,,,,image-button-response,9,214684,0.0-4.0-1.2,10,1,2023-03-14 19:11:28,27d22b55943edf8b2830e96048e50989,"Mozilla/5.0 (Macintosh; Intel Mac OS X 10_15_7) AppleWebKit/605.1.15 (KHTML, like Gecko) Version/16.3 Safari/605.1.15",Macintosh,Safari,16.3,OS X,10_15_7,9644,3,response_1,Andrena fulva,FALSE,,,
,,,,,html-keyboard-response,10,215188,0.0-4.0-0.3,10,1,2023-03-14 19:11:28,27d22b55943edf8b2830e96048e50989,"Mozilla/5.0 (Macintosh; Intel Mac OS X 10_15_7) AppleWebKit/605.1.15 (KHTML, like Gecko) Version/16.3 Safari/605.1.15",Macintosh,Safari,16.3,OS X,10_15_7,null,null,fixation,,,,,
,,,,,image-button-response,11,226369,0.0-4.0-1.3,10,1,2023-03-14 19:11:28,27d22b55943edf8b2830e96048e50989,"Mozilla/5.0 (Macintosh; Intel Mac OS X 10_15_7) AppleWebKit/605.1.15 (KHTML, like Gecko) Version/16.3 Safari/605.1.15",Macintosh,Safari,16.3,OS X,10_15_7,11168,1,response_1,Andrena flavipes,TRUE,,,
,,,,,html-keyboard-response,12,226622,0.0-4.0-0.4,10,1,2023-03-14 19:11:28,27d22b55943edf8b2830e96048e50989,"Mozilla/5.0 (Macintosh; Intel Mac OS X 10_15_7) AppleWebKit/605.1.15 (KHTML, like Gecko) Version/16.3 Safari/605.1.15",Macintosh,Safari,16.3,OS X,10_15_7,null,null,fixation,,,,,
,,,,,image-button-response,13,266102,0.0-4.0-1.4,10,1,2023-03-14 19:11:28,27d22b55943edf8b2830e96048e50989,"Mozilla/5.0 (Macintosh; Intel Mac OS X 10_15_7) AppleWebKit/605.1.15 (KHTML, like Gecko) Version/16.3 Safari/605.1.15",Macintosh,Safari,16.3,OS X,10_15_7,39465,1,response_1,Andrena flavipes,TRUE,,,
,,,,,html-keyboard-response,14,266606,0.0-4.0-0.5,10,1,2023-03-14 19:11:28,27d22b55943edf8b2830e96048e50989,"Mozilla/5.0 (Macintosh; Intel Mac OS X 10_15_7) AppleWebKit/605.1.15 (KHTML, like Gecko) Version/16.3 Safari/605.1.15",Macintosh,Safari,16.3,OS X,10_15_7,null,null,fixation,,,,,
,,,,,image-button-response,15,279884,0.0-4.0-1.5,10,1,2023-03-14 19:11:28,27d22b55943edf8b2830e96048e50989,"Mozilla/5.0 (Macintosh; Intel Mac OS X 10_15_7) AppleWebKit/605.1.15 (KHTML, like Gecko) Version/16.3 Safari/605.1.15",Macintosh,Safari,16.3,OS X,10_15_7,13260,4,response_1,Bombus pratorum,FALSE,,,
,,,,,html-button-response,16,288602,0.0-5.0,10,1,2023-03-14 19:11:28,27d22b55943edf8b2830e96048e50989,"Mozilla/5.0 (Macintosh; Intel Mac OS X 10_15_7) AppleWebKit/605.1.15 (KHTML, like Gecko) Version/16.3 Safari/605.1.15",Macintosh,Safari,16.3,OS X,10_15_7,8714,0,,,,,,
,,,,,html-keyboard-response,17,289357,0.0-6.0-0.0,10,1,2023-03-14 19:11:28,27d22b55943edf8b2830e96048e50989,"Mozilla/5.0 (Macintosh; Intel Mac OS X 10_15_7) AppleWebKit/605.1.15 (KHTML, like Gecko) Version/16.3 Safari/605.1.15",Macintosh,Safari,16.3,OS X,10_15_7,null,null,fixation,,,,,
,,,,,image-button-response,18,315734,0.0-6.0-1.0,10,1,2023-03-14 19:11:28,27d22b55943edf8b2830e96048e50989,"Mozilla/5.0 (Macintosh; Intel Mac OS X 10_15_7) AppleWebKit/605.1.15 (KHTML, like Gecko) Version/16.3 Safari/605.1.15",Macintosh,Safari,16.3,OS X,10_15_7,26357,5,response_pred,Bombus hortorum,FALSE,Bombus pratorum,it has fuzzy yellow and black stripes,
,,,,,html-keyboard-response,19,315989,0.0-6.0-0.1,10,1,2023-03-14 19:11:28,27d22b55943edf8b2830e96048e50989,"Mozilla/5.0 (Macintosh; Intel Mac OS X 10_15_7) AppleWebKit/605.1.15 (KHTML, like Gecko) Version/16.3 Safari/605.1.15",Macintosh,Safari,16.3,OS X,10_15_7,null,null,fixation,,,,,
,,,,,image-button-response,20,339368,0.0-6.0-1.1,10,1,2023-03-14 19:11:28,27d22b55943edf8b2830e96048e50989,"Mozilla/5.0 (Macintosh; Intel Mac OS X 10_15_7) AppleWebKit/605.1.15 (KHTML, like Gecko) Version/16.3 Safari/605.1.15",Macintosh,Safari,16.3,OS X,10_15_7,23351,3,response_pred,Andrena flavipes,FALSE,Andrena flavipes,it has a smooth shiny dark brown texture,
,,,,,html-keyboard-response,21,339873,0.0-6.0-0.2,10,1,2023-03-14 19:11:28,27d22b55943edf8b2830e96048e50989,"Mozilla/5.0 (Macintosh; Intel Mac OS X 10_15_7) AppleWebKit/605.1.15 (KHTML, like Gecko) Version/16.3 Safari/605.1.15",Macintosh,Safari,16.3,OS X,10_15_7,null,null,fixation,,,,,
,,,,,image-button-response,22,349684,0.0-6.0-1.2,10,1,2023-03-14 19:11:28,27d22b55943edf8b2830e96048e50989,"Mozilla/5.0 (Macintosh; Intel Mac OS X 10_15_7) AppleWebKit/605.1.15 (KHTML, like Gecko) Version/16.3 Safari/605.1.15",Macintosh,Safari,16.3,OS X,10_15_7,9800,5,response_pred,Bombus pratorum,TRUE,Bombus lucorum,it has fuzzy yellow and black stripes,
,,,,,html-keyboard-response,23,350188,0.0-6.0-0.3,10,1,2023-03-14 19:11:28,27d22b55943edf8b2830e96048e50989,"Mozilla/5.0 (Macintosh; Intel Mac OS X 10_15_7) AppleWebKit/605.1.15 (KHTML, like Gecko) Version/16.3 Safari/605.1.15",Macintosh,Safari,16.3,OS X,10_15_7,null,null,fixation,,,,,
,,,,,image-button-response,24,361519,0.0-6.0-1.3,10,1,2023-03-14 19:11:28,27d22b55943edf8b2830e96048e50989,"Mozilla/5.0 (Macintosh; Intel Mac OS X 10_15_7) AppleWebKit/605.1.15 (KHTML, like Gecko) Version/16.3 Safari/605.1.15",Macintosh,Safari,16.3,OS X,10_15_7,11319,2,response_pred,Andrena fulva,TRUE,Andrena fulva,it is fuzzy dark orange and it has a smooth shiny dark brown texture,
,,,,,html-keyboard-response,25,362022,0.0-6.0-0.4,10,1,2023-03-14 19:11:28,27d22b55943edf8b2830e96048e50989,"Mozilla/5.0 (Macintosh; Intel Mac OS X 10_15_7) AppleWebKit/605.1.15 (KHTML, like Gecko) Version/16.3 Safari/605.1.15",Macintosh,Safari,16.3,OS X,10_15_7,null,null,fixation,,,,,
,,,,,image-button-response,26,374217,0.0-6.0-1.4,10,1,2023-03-14 19:11:28,27d22b55943edf8b2830e96048e50989,"Mozilla/5.0 (Macintosh; Intel Mac OS X 10_15_7) AppleWebKit/605.1.15 (KHTML, like Gecko) Version/16.3 Safari/605.1.15",Macintosh,Safari,16.3,OS X,10_15_7,12180,0,response_pred,Andrena bicolor,TRUE,Andrena bicolor,it is fuzzy dark orange and it has a smooth shiny dark brown texture,
,,,,,html-keyboard-response,27,374721,0.0-6.0-0.5,10,1,2023-03-14 19:11:28,27d22b55943edf8b2830e96048e50989,"Mozilla/5.0 (Macintosh; Intel Mac OS X 10_15_7) AppleWebKit/605.1.15 (KHTML, like Gecko) Version/16.3 Safari/605.1.15",Macintosh,Safari,16.3,OS X,10_15_7,null,null,fixation,,,,,
,,,,,image-button-response,28,384132,0.0-6.0-1.5,10,1,2023-03-14 19:11:28,27d22b55943edf8b2830e96048e50989,"Mozilla/5.0 (Macintosh; Intel Mac OS X 10_15_7) AppleWebKit/605.1.15 (KHTML, like Gecko) Version/16.3 Safari/605.1.15",Macintosh,Safari,16.3,OS X,10_15_7,9394,4,response_pred,Bombus lucorum,TRUE,Bombus hortorum,it has fuzzy yellow and black stripes,
,,,,,html-button-response,29,392869,0.0-7.0,10,1,2023-03-14 19:11:28,27d22b55943edf8b2830e96048e50989,"Mozilla/5.0 (Macintosh; Intel Mac OS X 10_15_7) AppleWebKit/605.1.15 (KHTML, like Gecko) Version/16.3 Safari/605.1.15",Macintosh,Safari,16.3,OS X,10_15_7,8733,0,,,,,,
,,,,,html-keyboard-response,30,393372,0.0-8.0-0.0,10,1,2023-03-14 19:11:28,27d22b55943edf8b2830e96048e50989,"Mozilla/5.0 (Macintosh; Intel Mac OS X 10_15_7) AppleWebKit/605.1.15 (KHTML, like Gecko) Version/16.3 Safari/605.1.15",Macintosh,Safari,16.3,OS X,10_15_7,null,null,fixation,,,,,
,,,,,image-button-response,31,413800,0.0-8.0-1.0,10,1,2023-03-14 19:11:28,27d22b55943edf8b2830e96048e50989,"Mozilla/5.0 (Macintosh; Intel Mac OS X 10_15_7) AppleWebKit/605.1.15 (KHTML, like Gecko) Version/16.3 Safari/605.1.15",Macintosh,Safari,16.3,OS X,10_15_7,20411,3,response_2,Bombus hortorum,TRUE,,,
,,,,,html-keyboard-response,32,414304,0.0-8.0-0.1,10,1,2023-03-14 19:11:28,27d22b55943edf8b2830e96048e50989,"Mozilla/5.0 (Macintosh; Intel Mac OS X 10_15_7) AppleWebKit/605.1.15 (KHTML, like Gecko) Version/16.3 Safari/605.1.15",Macintosh,Safari,16.3,OS X,10_15_7,null,null,fixation,,,,,
,,,,,image-button-response,33,432967,0.0-8.0-1.1,10,1,2023-03-14 19:11:28,27d22b55943edf8b2830e96048e50989,"Mozilla/5.0 (Macintosh; Intel Mac OS X 10_15_7) AppleWebKit/605.1.15 (KHTML, like Gecko) Version/16.3 Safari/605.1.15",Macintosh,Safari,16.3,OS X,10_15_7,18645,5,response_2,Bombus lucorum,FALSE,,,
,,,,,html-keyboard-response,34,433221,0.0-8.0-0.2,10,1,2023-03-14 19:11:28,27d22b55943edf8b2830e96048e50989,"Mozilla/5.0 (Macintosh; Intel Mac OS X 10_15_7) AppleWebKit/605.1.15 (KHTML, like Gecko) Version/16.3 Safari/605.1.15",Macintosh,Safari,16.3,OS X,10_15_7,null,null,fixation,,,,,
,,,,,image-button-response,35,441950,0.0-8.0-1.2,10,1,2023-03-14 19:11:28,27d22b55943edf8b2830e96048e50989,"Mozilla/5.0 (Macintosh; Intel Mac OS X 10_15_7) AppleWebKit/605.1.15 (KHTML, like Gecko) Version/16.3 Safari/605.1.15",Macintosh,Safari,16.3,OS X,10_15_7,8715,0,response_2,Andrena bicolor,TRUE,,,
,,,,,html-keyboard-response,36,442455,0.0-8.0-0.3,10,1,2023-03-14 19:11:28,27d22b55943edf8b2830e96048e50989,"Mozilla/5.0 (Macintosh; Intel Mac OS X 10_15_7) AppleWebKit/605.1.15 (KHTML, like Gecko) Version/16.3 Safari/605.1.15",Macintosh,Safari,16.3,OS X,10_15_7,null,null,fixation,,,,,
,,,,,image-button-response,37,457067,0.0-8.0-1.3,10,1,2023-03-14 19:11:28,27d22b55943edf8b2830e96048e50989,"Mozilla/5.0 (Macintosh; Intel Mac OS X 10_15_7) AppleWebKit/605.1.15 (KHTML, like Gecko) Version/16.3 Safari/605.1.15",Macintosh,Safari,16.3,OS X,10_15_7,14599,5,response_2,Bombus hortorum,FALSE,,,
,,,,,html-keyboard-response,38,457321,0.0-8.0-0.4,10,1,2023-03-14 19:11:28,27d22b55943edf8b2830e96048e50989,"Mozilla/5.0 (Macintosh; Intel Mac OS X 10_15_7) AppleWebKit/605.1.15 (KHTML, like Gecko) Version/16.3 Safari/605.1.15",Macintosh,Safari,16.3,OS X,10_15_7,null,null,fixation,,,,,
,,,,,image-button-response,39,469934,0.0-8.0-1.4,10,1,2023-03-14 19:11:28,27d22b55943edf8b2830e96048e50989,"Mozilla/5.0 (Macintosh; Intel Mac OS X 10_15_7) AppleWebKit/605.1.15 (KHTML, like Gecko) Version/16.3 Safari/605.1.15",Macintosh,Safari,16.3,OS X,10_15_7,12600,0,response_2,Andrena bicolor,TRUE,,,
,,,,,html-keyboard-response,40,470687,0.0-8.0-0.5,10,1,2023-03-14 19:11:28,27d22b55943edf8b2830e96048e50989,"Mozilla/5.0 (Macintosh; Intel Mac OS X 10_15_7) AppleWebKit/605.1.15 (KHTML, like Gecko) Version/16.3 Safari/605.1.15",Macintosh,Safari,16.3,OS X,10_15_7,null,null,fixation,,,,,
,,,,,image-button-response,41,490766,0.0-8.0-1.5,10,1,2023-03-14 19:11:28,27d22b55943edf8b2830e96048e50989,"Mozilla/5.0 (Macintosh; Intel Mac OS X 10_15_7) AppleWebKit/605.1.15 (KHTML, like Gecko) Version/16.3 Safari/605.1.15",Macintosh,Safari,16.3,OS X,10_15_7,20068,5,response_2,Bombus pratorum,TRUE,,,
,,,,,html-button-response,42,492585,0.0-9.0,10,1,2023-03-14 19:11:28,27d22b55943edf8b2830e96048e50989,"Mozilla/5.0 (Macintosh; Intel Mac OS X 10_15_7) AppleWebKit/605.1.15 (KHTML, like Gecko) Version/16.3 Safari/605.1.15",Macintosh,Safari,16.3,OS X,10_15_7,1815,0,,,,,,
,,,,,survey-multi-choice,43,530239,0.0-10.0,10,1,2023-03-14 19:11:28,27d22b55943edf8b2830e96048e50989,"Mozilla/5.0 (Macintosh; Intel Mac OS X 10_15_7) AppleWebKit/605.1.15 (KHTML, like Gecko) Version/16.3 Safari/605.1.15",Macintosh,Safari,16.3,OS X,10_15_7,37650,"{""support_exp"":""strongly agree"",""causal_exp"":""strongly agree"",""know_exp"":""strongly agree"",""understand_exp"":""strongly agree""}",,,,,,"[0,1,2,3]"
,,,,,html-button-response,44,531400,0.0-11.0,10,1,2023-03-14 19:11:28,27d22b55943edf8b2830e96048e50989,"Mozilla/5.0 (Macintosh; Intel Mac OS X 10_15_7) AppleWebKit/605.1.15 (KHTML, like Gecko) Version/16.3 Safari/605.1.15",Macintosh,Safari,16.3,OS X,10_15_7,1145,0,,,,,,
TRUE,FALSE,[],[],[],preload,0,4042,0.0-0.0,13,1,2023-03-14 19:54:02,27d22b55943edf8b2830e96048e50989,Mozilla/5.0 (Macintosh; Intel Mac OS X 10.15; rv:109.0) Gecko/20100101 Firefox/110.0,Macintosh,Firefox,110,OS X,10.15,,,,,,,,
,,,,,html-button-response,1,10581,0.0-1.0,13,1,2023-03-14 19:54:02,27d22b55943edf8b2830e96048e50989,Mozilla/5.0 (Macintosh; Intel Mac OS X 10.15; rv:109.0) Gecko/20100101 Firefox/110.0,Macintosh,Firefox,110,OS X,10.15,6537,0,,,,,,
,,,,,html-button-response,2,69939,0.0-2.0,13,1,2023-03-14 19:54:02,27d22b55943edf8b2830e96048e50989,Mozilla/5.0 (Macintosh; Intel Mac OS X 10.15; rv:109.0) Gecko/20100101 Firefox/110.0,Macintosh,Firefox,110,OS X,10.15,59356,0,,,,,,
,,,,,html-button-response,3,208169,0.0-3.0,13,1,2023-03-14 19:54:02,27d22b55943edf8b2830e96048e50989,Mozilla/5.0 (Macintosh; Intel Mac OS X 10.15; rv:109.0) Gecko/20100101 Firefox/110.0,Macintosh,Firefox,110,OS X,10.15,138225,0,,,,,,
,,,,,html-keyboard-response,4,209685,0.0-4.0-0.0,13,1,2023-03-14 19:54:02,27d22b55943edf8b2830e96048e50989,Mozilla/5.0 (Macintosh; Intel Mac OS X 10.15; rv:109.0) Gecko/20100101 Firefox/110.0,Macintosh,Firefox,110,OS X,10.15,null,null,fixation,,,,,
,,,,,image-button-response,5,240268,0.0-4.0-1.0,13,1,2023-03-14 19:54:02,27d22b55943edf8b2830e96048e50989,Mozilla/5.0 (Macintosh; Intel Mac OS X 10.15; rv:109.0) Gecko/20100101 Firefox/110.0,Macintosh,Firefox,110,OS X,10.15,30543,1,response_1,Andrena flavipes,TRUE,,,
,,,,,html-keyboard-response,6,240776,0.0-4.0-0.1,13,1,2023-03-14 19:54:02,27d22b55943edf8b2830e96048e50989,Mozilla/5.0 (Macintosh; Intel Mac OS X 10.15; rv:109.0) Gecko/20100101 Firefox/110.0,Macintosh,Firefox,110,OS X,10.15,null,null,fixation,,,,,
,,,,,image-button-response,7,265055,0.0-4.0-1.1,13,1,2023-03-14 19:54:02,27d22b55943edf8b2830e96048e50989,Mozilla/5.0 (Macintosh; Intel Mac OS X 10.15; rv:109.0) Gecko/20100101 Firefox/110.0,Macintosh,Firefox,110,OS X,10.15,24268,3,response_1,Andrena fulva,FALSE,,,
,,,,,html-keyboard-response,8,265813,0.0-4.0-0.2,13,1,2023-03-14 19:54:02,27d22b55943edf8b2830e96048e50989,Mozilla/5.0 (Macintosh; Intel Mac OS X 10.15; rv:109.0) Gecko/20100101 Firefox/110.0,Macintosh,Firefox,110,OS X,10.15,null,null,fixation,,,,,
,,,,,image-button-response,9,273468,0.0-4.0-1.2,13,1,2023-03-14 19:54:02,27d22b55943edf8b2830e96048e50989,Mozilla/5.0 (Macintosh; Intel Mac OS X 10.15; rv:109.0) Gecko/20100101 Firefox/110.0,Macintosh,Firefox,110,OS X,10.15,7647,4,response_1,Bombus hortorum,FALSE,,,
,,,,,html-keyboard-response,10,273974,0.0-4.0-0.3,13,1,2023-03-14 19:54:02,27d22b55943edf8b2830e96048e50989,Mozilla/5.0 (Macintosh; Intel Mac OS X 10.15; rv:109.0) Gecko/20100101 Firefox/110.0,Macintosh,Firefox,110,OS X,10.15,null,null,fixation,,,,,
,,,,,image-button-response,11,287857,0.0-4.0-1.3,13,1,2023-03-14 19:54:02,27d22b55943edf8b2830e96048e50989,Mozilla/5.0 (Macintosh; Intel Mac OS X 10.15; rv:109.0) Gecko/20100101 Firefox/110.0,Macintosh,Firefox,110,OS X,10.15,13873,0,response_1,Andrena bicolor,TRUE,,,
,,,,,html-keyboard-response,12,288114,0.0-4.0-0.4,13,1,2023-03-14 19:54:02,27d22b55943edf8b2830e96048e50989,Mozilla/5.0 (Macintosh; Intel Mac OS X 10.15; rv:109.0) Gecko/20100101 Firefox/110.0,Macintosh,Firefox,110,OS X,10.15,null,null,fixation,,,,,
,,,,,image-button-response,13,301231,0.0-4.0-1.4,13,1,2023-03-14 19:54:02,27d22b55943edf8b2830e96048e50989,Mozilla/5.0 (Macintosh; Intel Mac OS X 10.15; rv:109.0) Gecko/20100101 Firefox/110.0,Macintosh,Firefox,110,OS X,10.15,13109,5,response_1,Bombus pratorum,TRUE,,,
,,,,,html-keyboard-response,14,301739,0.0-4.0-0.5,13,1,2023-03-14 19:54:02,27d22b55943edf8b2830e96048e50989,Mozilla/5.0 (Macintosh; Intel Mac OS X 10.15; rv:109.0) Gecko/20100101 Firefox/110.0,Macintosh,Firefox,110,OS X,10.15,null,null,fixation,,,,,
,,,,,image-button-response,15,310170,0.0-4.0-1.5,13,1,2023-03-14 19:54:02,27d22b55943edf8b2830e96048e50989,Mozilla/5.0 (Macintosh; Intel Mac OS X 10.15; rv:109.0) Gecko/20100101 Firefox/110.0,Macintosh,Firefox,110,OS X,10.15,8425,5,response_1,Bombus pratorum,TRUE,,,
,,,,,html-button-response,16,328509,0.0-5.0,13,1,2023-03-14 19:54:02,27d22b55943edf8b2830e96048e50989,Mozilla/5.0 (Macintosh; Intel Mac OS X 10.15; rv:109.0) Gecko/20100101 Firefox/110.0,Macintosh,Firefox,110,OS X,10.15,18336,0,,,,,,
,,,,,html-keyboard-response,17,329014,0.0-6.0-0.0,13,1,2023-03-14 19:54:02,27d22b55943edf8b2830e96048e50989,Mozilla/5.0 (Macintosh; Intel Mac OS X 10.15; rv:109.0) Gecko/20100101 Firefox/110.0,Macintosh,Firefox,110,OS X,10.15,null,null,fixation,,,,,
,,,,,image-button-response,18,364937,0.0-6.0-1.0,13,1,2023-03-14 19:54:02,27d22b55943edf8b2830e96048e50989,Mozilla/5.0 (Macintosh; Intel Mac OS X 10.15; rv:109.0) Gecko/20100101 Firefox/110.0,Macintosh,Firefox,110,OS X,10.15,35913,4,response_pred,Bombus lucorum,TRUE,Bombus hortorum,it has fuzzy yellow and black stripes,
,,,,,html-keyboard-response,19,365443,0.0-6.0-0.1,13,1,2023-03-14 19:54:02,27d22b55943edf8b2830e96048e50989,Mozilla/5.0 (Macintosh; Intel Mac OS X 10.15; rv:109.0) Gecko/20100101 Firefox/110.0,Macintosh,Firefox,110,OS X,10.15,null,null,fixation,,,,,
,,,,,image-button-response,20,396467,0.0-6.0-1.1,13,1,2023-03-14 19:54:02,27d22b55943edf8b2830e96048e50989,Mozilla/5.0 (Macintosh; Intel Mac OS X 10.15; rv:109.0) Gecko/20100101 Firefox/110.0,Macintosh,Firefox,110,OS X,10.15,31017,0,response_pred,Andrena bicolor,TRUE,Andrena bicolor,it is fuzzy dark orange and it has a smooth shiny dark brown texture,
,,,,,html-keyboard-response,21,397223,0.0-6.0-0.2,13,1,2023-03-14 19:54:02,27d22b55943edf8b2830e96048e50989,Mozilla/5.0 (Macintosh; Intel Mac OS X 10.15; rv:109.0) Gecko/20100101 Firefox/110.0,Macintosh,Firefox,110,OS X,10.15,null,null,fixation,,,,,
,,,,,image-button-response,22,405290,0.0-6.0-1.2,13,1,2023-03-14 19:54:02,27d22b55943edf8b2830e96048e50989,Mozilla/5.0 (Macintosh; Intel Mac OS X 10.15; rv:109.0) Gecko/20100101 Firefox/110.0,Macintosh,Firefox,110,OS X,10.15,8059,2,response_pred,Andrena fulva,TRUE,Andrena fulva,it is fuzzy dark orange and it has a smooth shiny dark brown texture,
,,,,,html-keyboard-response,23,405548,0.0-6.0-0.3,13,1,2023-03-14 19:54:02,27d22b55943edf8b2830e96048e50989,Mozilla/5.0 (Macintosh; Intel Mac OS X 10.15; rv:109.0) Gecko/20100101 Firefox/110.0,Macintosh,Firefox,110,OS X,10.15,null,null,fixation,,,,,
,,,,,image-button-response,24,419577,0.0-6.0-1.3,13,1,2023-03-14 19:54:02,27d22b55943edf8b2830e96048e50989,Mozilla/5.0 (Macintosh; Intel Mac OS X 10.15; rv:109.0) Gecko/20100101 Firefox/110.0,Macintosh,Firefox,110,OS X,10.15,14023,4,response_pred,Bombus pratorum,FALSE,Bombus lucorum,it has fuzzy yellow and black stripes,
,,,,,html-keyboard-response,25,419834,0.0-6.0-0.4,13,1,2023-03-14 19:54:02,27d22b55943edf8b2830e96048e50989,Mozilla/5.0 (Macintosh; Intel Mac OS X 10.15; rv:109.0) Gecko/20100101 Firefox/110.0,Macintosh,Firefox,110,OS X,10.15,null,null,fixation,,,,,
,,,,,image-button-response,26,451922,0.0-6.0-1.4,13,1,2023-03-14 19:54:02,27d22b55943edf8b2830e96048e50989,Mozilla/5.0 (Macintosh; Intel Mac OS X 10.15; rv:109.0) Gecko/20100101 Firefox/110.0,Macintosh,Firefox,110,OS X,10.15,32071,1,response_pred,Andrena flavipes,TRUE,Andrena flavipes,it has a smooth shiny dark brown texture,
,,,,,html-keyboard-response,27,452680,0.0-6.0-0.5,13,1,2023-03-14 19:54:02,27d22b55943edf8b2830e96048e50989,Mozilla/5.0 (Macintosh; Intel Mac OS X 10.15; rv:109.0) Gecko/20100101 Firefox/110.0,Macintosh,Firefox,110,OS X,10.15,null,null,fixation,,,,,
,,,,,image-button-response,28,520870,0.0-6.0-1.5,13,1,2023-03-14 19:54:02,27d22b55943edf8b2830e96048e50989,Mozilla/5.0 (Macintosh; Intel Mac OS X 10.15; rv:109.0) Gecko/20100101 Firefox/110.0,Macintosh,Firefox,110,OS X,10.15,68177,4,response_pred,Bombus hortorum,FALSE,Bombus pratorum,it has fuzzy yellow and black stripes,
,,,,,html-button-response,29,525395,0.0-7.0,13,1,2023-03-14 19:54:02,27d22b55943edf8b2830e96048e50989,Mozilla/5.0 (Macintosh; Intel Mac OS X 10.15; rv:109.0) Gecko/20100101 Firefox/110.0,Macintosh,Firefox,110,OS X,10.15,4522,0,,,,,,
,,,,,html-keyboard-response,30,525652,0.0-8.0-0.0,13,1,2023-03-14 19:54:02,27d22b55943edf8b2830e96048e50989,Mozilla/5.0 (Macintosh; Intel Mac OS X 10.15; rv:109.0) Gecko/20100101 Firefox/110.0,Macintosh,Firefox,110,OS X,10.15,null,null,fixation,,,,,
,,,,,image-button-response,31,569969,0.0-8.0-1.0,13,1,2023-03-14 19:54:02,27d22b55943edf8b2830e96048e50989,Mozilla/5.0 (Macintosh; Intel Mac OS X 10.15; rv:109.0) Gecko/20100101 Firefox/110.0,Macintosh,Firefox,110,OS X,10.15,44309,1,response_2,Andrena flavipes,TRUE,,,
,,,,,html-keyboard-response,32,570226,0.0-8.0-0.1,13,1,2023-03-14 19:54:02,27d22b55943edf8b2830e96048e50989,Mozilla/5.0 (Macintosh; Intel Mac OS X 10.15; rv:109.0) Gecko/20100101 Firefox/110.0,Macintosh,Firefox,110,OS X,10.15,null,null,fixation,,,,,
,,,,,image-button-response,33,582735,0.0-8.0-1.1,13,1,2023-03-14 19:54:02,27d22b55943edf8b2830e96048e50989,Mozilla/5.0 (Macintosh; Intel Mac OS X 10.15; rv:109.0) Gecko/20100101 Firefox/110.0,Macintosh,Firefox,110,OS X,10.15,12498,4,response_2,Bombus lucorum,TRUE,,,
,,,,,html-keyboard-response,34,582992,0.0-8.0-0.2,13,1,2023-03-14 19:54:02,27d22b55943edf8b2830e96048e50989,Mozilla/5.0 (Macintosh; Intel Mac OS X 10.15; rv:109.0) Gecko/20100101 Firefox/110.0,Macintosh,Firefox,110,OS X,10.15,null,null,fixation,,,,,
,,,,,image-button-response,35,611754,0.0-8.0-1.2,13,1,2023-03-14 19:54:02,27d22b55943edf8b2830e96048e50989,Mozilla/5.0 (Macintosh; Intel Mac OS X 10.15; rv:109.0) Gecko/20100101 Firefox/110.0,Macintosh,Firefox,110,OS X,10.15,28750,5,response_2,Bombus hortorum,FALSE,,,
,,,,,html-keyboard-response,36,612010,0.0-8.0-0.3,13,1,2023-03-14 19:54:02,27d22b55943edf8b2830e96048e50989,Mozilla/5.0 (Macintosh; Intel Mac OS X 10.15; rv:109.0) Gecko/20100101 Firefox/110.0,Macintosh,Firefox,110,OS X,10.15,null,null,fixation,,,,,
,,,,,image-button-response,37,630833,0.0-8.0-1.3,13,1,2023-03-14 19:54:02,27d22b55943edf8b2830e96048e50989,Mozilla/5.0 (Macintosh; Intel Mac OS X 10.15; rv:109.0) Gecko/20100101 Firefox/110.0,Macintosh,Firefox,110,OS X,10.15,18812,2,response_2,Andrena fulva,TRUE,,,
,,,,,html-keyboard-response,38,631091,0.0-8.0-0.4,13,1,2023-03-14 19:54:02,27d22b55943edf8b2830e96048e50989,Mozilla/5.0 (Macintosh; Intel Mac OS X 10.15; rv:109.0) Gecko/20100101 Firefox/110.0,Macintosh,Firefox,110,OS X,10.15,null,null,fixation,,,,,
,,,,,image-button-response,39,636941,0.0-8.0-1.4,13,1,2023-03-14 19:54:02,27d22b55943edf8b2830e96048e50989,Mozilla/5.0 (Macintosh; Intel Mac OS X 10.15; rv:109.0) Gecko/20100101 Firefox/110.0,Macintosh,Firefox,110,OS X,10.15,5843,0,response_2,Andrena bicolor,TRUE,,,
,,,,,html-keyboard-response,40,637694,0.0-8.0-0.5,13,1,2023-03-14 19:54:02,27d22b55943edf8b2830e96048e50989,Mozilla/5.0 (Macintosh; Intel Mac OS X 10.15; rv:109.0) Gecko/20100101 Firefox/110.0,Macintosh,Firefox,110,OS X,10.15,null,null,fixation,,,,,
,,,,,image-button-response,41,651317,0.0-8.0-1.5,13,1,2023-03-14 19:54:02,27d22b55943edf8b2830e96048e50989,Mozilla/5.0 (Macintosh; Intel Mac OS X 10.15; rv:109.0) Gecko/20100101 Firefox/110.0,Macintosh,Firefox,110,OS X,10.15,13615,5,response_2,Bombus lucorum,FALSE,,,
,,,,,html-button-response,42,655509,0.0-9.0,13,1,2023-03-14 19:54:02,27d22b55943edf8b2830e96048e50989,Mozilla/5.0 (Macintosh; Intel Mac OS X 10.15; rv:109.0) Gecko/20100101 Firefox/110.0,Macintosh,Firefox,110,OS X,10.15,4189,0,,,,,,
,,,,,survey-multi-choice,43,848314,0.0-10.0,13,1,2023-03-14 19:54:02,27d22b55943edf8b2830e96048e50989,Mozilla/5.0 (Macintosh; Intel Mac OS X 10.15; rv:109.0) Gecko/20100101 Firefox/110.0,Macintosh,Firefox,110,OS X,10.15,192801,"{""support_exp"":""neutral"",""causal_exp"":""somewhat disagree"",""know_exp"":""somewhat agree"",""understand_exp"":""somewhat agree""}",,,,,,"[0,1,2,3]"
,,,,,html-button-response,44,849588,0.0-11.0,13,1,2023-03-14 19:54:02,27d22b55943edf8b2830e96048e50989,Mozilla/5.0 (Macintosh; Intel Mac OS X 10.15; rv:109.0) Gecko/20100101 Firefox/110.0,Macintosh,Firefox,110,OS X,10.15,1273,0,,,,,,
TRUE,FALSE,[],[],[],preload,0,368,0.0-0.0,5,1,2023-03-14 15:41:21,27d22b55943edf8b2830e96048e50989,"Mozilla/5.0 (Macintosh; Intel Mac OS X 10_15_7) AppleWebKit/537.36 (KHTML, like Gecko) Chrome/110.0.0.0 Safari/537.36",Macintosh,Chrome,110.0.0.0,OS X,10_15_7,,,,,,,,
,,,,,html-button-response,1,8786,0.0-1.0,5,1,2023-03-14 15:41:21,27d22b55943edf8b2830e96048e50989,"Mozilla/5.0 (Macintosh; Intel Mac OS X 10_15_7) AppleWebKit/537.36 (KHTML, like Gecko) Chrome/110.0.0.0 Safari/537.36",Macintosh,Chrome,110.0.0.0,OS X,10_15_7,8415,0,,,,,,
,,,,,html-button-response,2,202268,0.0-2.0,5,1,2023-03-14 15:41:21,27d22b55943edf8b2830e96048e50989,"Mozilla/5.0 (Macintosh; Intel Mac OS X 10_15_7) AppleWebKit/537.36 (KHTML, like Gecko) Chrome/110.0.0.0 Safari/537.36",Macintosh,Chrome,110.0.0.0,OS X,10_15_7,193488,0,,,,,,
,,,,,html-button-response,3,575350,0.0-3.0,5,1,2023-03-14 15:41:21,27d22b55943edf8b2830e96048e50989,"Mozilla/5.0 (Macintosh; Intel Mac OS X 10_15_7) AppleWebKit/537.36 (KHTML, like Gecko) Chrome/110.0.0.0 Safari/537.36",Macintosh,Chrome,110.0.0.0,OS X,10_15_7,373094,0,,,,,,
,,,,,html-keyboard-response,4,577116,0.0-4.0-0.0,5,1,2023-03-14 15:41:21,27d22b55943edf8b2830e96048e50989,"Mozilla/5.0 (Macintosh; Intel Mac OS X 10_15_7) AppleWebKit/537.36 (KHTML, like Gecko) Chrome/110.0.0.0 Safari/537.36",Macintosh,Chrome,110.0.0.0,OS X,10_15_7,null,null,fixation,,,,,
,,,,,image-button-response,5,609452,0.0-4.0-1.0,5,1,2023-03-14 15:41:21,27d22b55943edf8b2830e96048e50989,"Mozilla/5.0 (Macintosh; Intel Mac OS X 10_15_7) AppleWebKit/537.36 (KHTML, like Gecko) Chrome/110.0.0.0 Safari/537.36",Macintosh,Chrome,110.0.0.0,OS X,10_15_7,32329,5,response_1,Bombus lucorum,FALSE,,,
,,,,,html-keyboard-response,6,610210,0.0-4.0-0.1,5,1,2023-03-14 15:41:21,27d22b55943edf8b2830e96048e50989,"Mozilla/5.0 (Macintosh; Intel Mac OS X 10_15_7) AppleWebKit/537.36 (KHTML, like Gecko) Chrome/110.0.0.0 Safari/537.36",Macintosh,Chrome,110.0.0.0,OS X,10_15_7,null,null,fixation,,,,,
,,,,,image-button-response,7,653550,0.0-4.0-1.1,5,1,2023-03-14 15:41:21,27d22b55943edf8b2830e96048e50989,"Mozilla/5.0 (Macintosh; Intel Mac OS X 10_15_7) AppleWebKit/537.36 (KHTML, like Gecko) Chrome/110.0.0.0 Safari/537.36",Macintosh,Chrome,110.0.0.0,OS X,10_15_7,43336,0,response_1,Andrena flavipes,FALSE,,,
,,,,,html-keyboard-response,8,654306,0.0-4.0-0.2,5,1,2023-03-14 15:41:21,27d22b55943edf8b2830e96048e50989,"Mozilla/5.0 (Macintosh; Intel Mac OS X 10_15_7) AppleWebKit/537.36 (KHTML, like Gecko) Chrome/110.0.0.0 Safari/537.36",Macintosh,Chrome,110.0.0.0,OS X,10_15_7,null,null,fixation,,,,,
,,,,,image-button-response,9,660934,0.0-4.0-1.2,5,1,2023-03-14 15:41:21,27d22b55943edf8b2830e96048e50989,"Mozilla/5.0 (Macintosh; Intel Mac OS X 10_15_7) AppleWebKit/537.36 (KHTML, like Gecko) Chrome/110.0.0.0 Safari/537.36",Macintosh,Chrome,110.0.0.0,OS X,10_15_7,6622,4,response_1,Bombus hortorum,FALSE,,,
,,,,,html-keyboard-response,10,661443,0.0-4.0-0.3,5,1,2023-03-14 15:41:21,27d22b55943edf8b2830e96048e50989,"Mozilla/5.0 (Macintosh; Intel Mac OS X 10_15_7) AppleWebKit/537.36 (KHTML, like Gecko) Chrome/110.0.0.0 Safari/537.36",Macintosh,Chrome,110.0.0.0,OS X,10_15_7,null,null,fixation,,,,,
,,,,,image-button-response,11,680801,0.0-4.0-1.3,5,1,2023-03-14 15:41:21,27d22b55943edf8b2830e96048e50989,"Mozilla/5.0 (Macintosh; Intel Mac OS X 10_15_7) AppleWebKit/537.36 (KHTML, like Gecko) Chrome/110.0.0.0 Safari/537.36",Macintosh,Chrome,110.0.0.0,OS X,10_15_7,19353,5,response_1,Bombus pratorum,TRUE,,,
,,,,,html-keyboard-response,12,681563,0.0-4.0-0.4,5,1,2023-03-14 15:41:21,27d22b55943edf8b2830e96048e50989,"Mozilla/5.0 (Macintosh; Intel Mac OS X 10_15_7) AppleWebKit/537.36 (KHTML, like Gecko) Chrome/110.0.0.0 Safari/537.36",Macintosh,Chrome,110.0.0.0,OS X,10_15_7,null,null,fixation,,,,,
,,,,,image-button-response,13,689551,0.0-4.0-1.4,5,1,2023-03-14 15:41:21,27d22b55943edf8b2830e96048e50989,"Mozilla/5.0 (Macintosh; Intel Mac OS X 10_15_7) AppleWebKit/537.36 (KHTML, like Gecko) Chrome/110.0.0.0 Safari/537.36",Macintosh,Chrome,110.0.0.0,OS X,10_15_7,7982,2,response_1,Andrena fulva,TRUE,,,
,,,,,html-keyboard-response,14,689810,0.0-4.0-0.5,5,1,2023-03-14 15:41:21,27d22b55943edf8b2830e96048e50989,"Mozilla/5.0 (Macintosh; Intel Mac OS X 10_15_7) AppleWebKit/537.36 (KHTML, like Gecko) Chrome/110.0.0.0 Safari/537.36",Macintosh,Chrome,110.0.0.0,OS X,10_15_7,null,null,fixation,,,,,
,,,,,image-button-response,15,743984,0.0-4.0-1.5,5,1,2023-03-14 15:41:21,27d22b55943edf8b2830e96048e50989,"Mozilla/5.0 (Macintosh; Intel Mac OS X 10_15_7) AppleWebKit/537.36 (KHTML, like Gecko) Chrome/110.0.0.0 Safari/537.36",Macintosh,Chrome,110.0.0.0,OS X,10_15_7,54170,4,response_1,Bombus lucorum,TRUE,,,
,,,,,html-button-response,16,772983,0.0-5.0,5,1,2023-03-14 15:41:21,27d22b55943edf8b2830e96048e50989,"Mozilla/5.0 (Macintosh; Intel Mac OS X 10_15_7) AppleWebKit/537.36 (KHTML, like Gecko) Chrome/110.0.0.0 Safari/537.36",Macintosh,Chrome,110.0.0.0,OS X,10_15_7,28996,0,,,,,,
,,,,,html-keyboard-response,17,773743,0.0-6.0-0.0,5,1,2023-03-14 15:41:21,27d22b55943edf8b2830e96048e50989,"Mozilla/5.0 (Macintosh; Intel Mac OS X 10_15_7) AppleWebKit/537.36 (KHTML, like Gecko) Chrome/110.0.0.0 Safari/537.36",Macintosh,Chrome,110.0.0.0,OS X,10_15_7,null,null,fixation,,,,,
,,,,,image-button-response,18,800867,0.0-6.0-1.0,5,1,2023-03-14 15:41:21,27d22b55943edf8b2830e96048e50989,"Mozilla/5.0 (Macintosh; Intel Mac OS X 10_15_7) AppleWebKit/537.36 (KHTML, like Gecko) Chrome/110.0.0.0 Safari/537.36",Macintosh,Chrome,110.0.0.0,OS X,10_15_7,27119,3,response_pred,Bombus lucorum,FALSE,Bombus hortorum,it has fuzzy yellow and black stripes,
,,,,,html-keyboard-response,19,801370,0.0-6.0-0.1,5,1,2023-03-14 15:41:21,27d22b55943edf8b2830e96048e50989,"Mozilla/5.0 (Macintosh; Intel Mac OS X 10_15_7) AppleWebKit/537.36 (KHTML, like Gecko) Chrome/110.0.0.0 Safari/537.36",Macintosh,Chrome,110.0.0.0,OS X,10_15_7,null,null,fixation,,,,,
,,,,,image-button-response,20,837466,0.0-6.0-1.1,5,1,2023-03-14 15:41:21,27d22b55943edf8b2830e96048e50989,"Mozilla/5.0 (Macintosh; Intel Mac OS X 10_15_7) AppleWebKit/537.36 (KHTML, like Gecko) Chrome/110.0.0.0 Safari/537.36",Macintosh,Chrome,110.0.0.0,OS X,10_15_7,36091,0,response_pred,Andrena bicolor,TRUE,Andrena bicolor,it is fuzzy dark orange and it has a smooth shiny dark brown texture,
,,,,,html-keyboard-response,21,837732,0.0-6.0-0.2,5,1,2023-03-14 15:41:21,27d22b55943edf8b2830e96048e50989,"Mozilla/5.0 (Macintosh; Intel Mac OS X 10_15_7) AppleWebKit/537.36 (KHTML, like Gecko) Chrome/110.0.0.0 Safari/537.36",Macintosh,Chrome,110.0.0.0,OS X,10_15_7,null,null,fixation,,,,,
,,,,,image-button-response,22,855265,0.0-6.0-1.2,5,1,2023-03-14 15:41:21,27d22b55943edf8b2830e96048e50989,"Mozilla/5.0 (Macintosh; Intel Mac OS X 10_15_7) AppleWebKit/537.36 (KHTML, like Gecko) Chrome/110.0.0.0 Safari/537.36",Macintosh,Chrome,110.0.0.0,OS X,10_15_7,17529,2,response_pred,Andrena fulva,TRUE,Andrena fulva,it is fuzzy dark orange and it has a smooth shiny dark brown texture,
,,,,,html-keyboard-response,23,856026,0.0-6.0-0.3,5,1,2023-03-14 15:41:21,27d22b55943edf8b2830e96048e50989,"Mozilla/5.0 (Macintosh; Intel Mac OS X 10_15_7) AppleWebKit/537.36 (KHTML, like Gecko) Chrome/110.0.0.0 Safari/537.36",Macintosh,Chrome,110.0.0.0,OS X,10_15_7,null,null,fixation,,,,,
,,,,,image-button-response,24,884117,0.0-6.0-1.3,5,1,2023-03-14 15:41:21,27d22b55943edf8b2830e96048e50989,"Mozilla/5.0 (Macintosh; Intel Mac OS X 10_15_7) AppleWebKit/537.36 (KHTML, like Gecko) Chrome/110.0.0.0 Safari/537.36",Macintosh,Chrome,110.0.0.0,OS X,10_15_7,28085,5,response_pred,Bombus pratorum,TRUE,Bombus lucorum,it has fuzzy yellow and black stripes,
,,,,,html-keyboard-response,25,884626,0.0-6.0-0.4,5,1,2023-03-14 15:41:21,27d22b55943edf8b2830e96048e50989,"Mozilla/5.0 (Macintosh; Intel Mac OS X 10_15_7) AppleWebKit/537.36 (KHTML, like Gecko) Chrome/110.0.0.0 Safari/537.36",Macintosh,Chrome,110.0.0.0,OS X,10_15_7,null,null,fixation,,,,,
,,,,,image-button-response,26,906666,0.0-6.0-1.4,5,1,2023-03-14 15:41:21,27d22b55943edf8b2830e96048e50989,"Mozilla/5.0 (Macintosh; Intel Mac OS X 10_15_7) AppleWebKit/537.36 (KHTML, like Gecko) Chrome/110.0.0.0 Safari/537.36",Macintosh,Chrome,110.0.0.0,OS X,10_15_7,22036,1,response_pred,Andrena flavipes,TRUE,Andrena flavipes,it has a smooth shiny dark brown texture,
,,,,,html-keyboard-response,27,907425,0.0-6.0-0.5,5,1,2023-03-14 15:41:21,27d22b55943edf8b2830e96048e50989,"Mozilla/5.0 (Macintosh; Intel Mac OS X 10_15_7) AppleWebKit/537.36 (KHTML, like Gecko) Chrome/110.0.0.0 Safari/537.36",Macintosh,Chrome,110.0.0.0,OS X,10_15_7,null,null,fixation,,,,,
,,,,,image-button-response,28,933132,0.0-6.0-1.5,5,1,2023-03-14 15:41:21,27d22b55943edf8b2830e96048e50989,"Mozilla/5.0 (Macintosh; Intel Mac OS X 10_15_7) AppleWebKit/537.36 (KHTML, like Gecko) Chrome/110.0.0.0 Safari/537.36",Macintosh,Chrome,110.0.0.0,OS X,10_15_7,25702,3,response_pred,Bombus hortorum,TRUE,Bombus pratorum,it has fuzzy yellow and black stripes,
,,,,,html-button-response,29,974033,0.0-7.0,5,1,2023-03-14 15:41:21,27d22b55943edf8b2830e96048e50989,"Mozilla/5.0 (Macintosh; Intel Mac OS X 10_15_7) AppleWebKit/537.36 (KHTML, like Gecko) Chrome/110.0.0.0 Safari/537.36",Macintosh,Chrome,110.0.0.0,OS X,10_15_7,40899,0,,,,,,
,,,,,html-keyboard-response,30,974542,0.0-8.0-0.0,5,1,2023-03-14 15:41:21,27d22b55943edf8b2830e96048e50989,"Mozilla/5.0 (Macintosh; Intel Mac OS X 10_15_7) AppleWebKit/537.36 (KHTML, like Gecko) Chrome/110.0.0.0 Safari/537.36",Macintosh,Chrome,110.0.0.0,OS X,10_15_7,null,null,fixation,,,,,
,,,,,image-button-response,31,995282,0.0-8.0-1.0,5,1,2023-03-14 15:41:21,27d22b55943edf8b2830e96048e50989,"Mozilla/5.0 (Macintosh; Intel Mac OS X 10_15_7) AppleWebKit/537.36 (KHTML, like Gecko) Chrome/110.0.0.0 Safari/537.36",Macintosh,Chrome,110.0.0.0,OS X,10_15_7,20735,3,response_2,Andrena fulva,FALSE,,,
,,,,,html-keyboard-response,32,995789,0.0-8.0-0.1,5,1,2023-03-14 15:41:21,27d22b55943edf8b2830e96048e50989,"Mozilla/5.0 (Macintosh; Intel Mac OS X 10_15_7) AppleWebKit/537.36 (KHTML, like Gecko) Chrome/110.0.0.0 Safari/537.36",Macintosh,Chrome,110.0.0.0,OS X,10_15_7,null,null,fixation,,,,,
,,,,,image-button-response,33,1005283,0.0-8.0-1.1,5,1,2023-03-14 15:41:21,27d22b55943edf8b2830e96048e50989,"Mozilla/5.0 (Macintosh; Intel Mac OS X 10_15_7) AppleWebKit/537.36 (KHTML, like Gecko) Chrome/110.0.0.0 Safari/537.36",Macintosh,Chrome,110.0.0.0,OS X,10_15_7,9488,0,response_2,Andrena bicolor,TRUE,,,
,,,,,html-keyboard-response,34,1005549,0.0-8.0-0.2,5,1,2023-03-14 15:41:21,27d22b55943edf8b2830e96048e50989,"Mozilla/5.0 (Macintosh; Intel Mac OS X 10_15_7) AppleWebKit/537.36 (KHTML, like Gecko) Chrome/110.0.0.0 Safari/537.36",Macintosh,Chrome,110.0.0.0,OS X,10_15_7,null,null,fixation,,,,,
,,,,,image-button-response,35,1020083,0.0-8.0-1.2,5,1,2023-03-14 15:41:21,27d22b55943edf8b2830e96048e50989,"Mozilla/5.0 (Macintosh; Intel Mac OS X 10_15_7) AppleWebKit/537.36 (KHTML, like Gecko) Chrome/110.0.0.0 Safari/537.36",Macintosh,Chrome,110.0.0.0,OS X,10_15_7,14528,4,response_2,Bombus hortorum,FALSE,,,
,,,,,html-keyboard-response,36,1020348,0.0-8.0-0.3,5,1,2023-03-14 15:41:21,27d22b55943edf8b2830e96048e50989,"Mozilla/5.0 (Macintosh; Intel Mac OS X 10_15_7) AppleWebKit/537.36 (KHTML, like Gecko) Chrome/110.0.0.0 Safari/537.36",Macintosh,Chrome,110.0.0.0,OS X,10_15_7,null,null,fixation,,,,,
,,,,,image-button-response,37,1032583,0.0-8.0-1.3,5,1,2023-03-14 15:41:21,27d22b55943edf8b2830e96048e50989,"Mozilla/5.0 (Macintosh; Intel Mac OS X 10_15_7) AppleWebKit/537.36 (KHTML, like Gecko) Chrome/110.0.0.0 Safari/537.36",Macintosh,Chrome,110.0.0.0,OS X,10_15_7,12229,5,response_2,Bombus pratorum,TRUE,,,
,,,,,html-keyboard-response,38,1033091,0.0-8.0-0.4,5,1,2023-03-14 15:41:21,27d22b55943edf8b2830e96048e50989,"Mozilla/5.0 (Macintosh; Intel Mac OS X 10_15_7) AppleWebKit/537.36 (KHTML, like Gecko) Chrome/110.0.0.0 Safari/537.36",Macintosh,Chrome,110.0.0.0,OS X,10_15_7,null,null,fixation,,,,,
,,,,,image-button-response,39,1044049,0.0-8.0-1.4,5,1,2023-03-14 15:41:21,27d22b55943edf8b2830e96048e50989,"Mozilla/5.0 (Macintosh; Intel Mac OS X 10_15_7) AppleWebKit/537.36 (KHTML, like Gecko) Chrome/110.0.0.0 Safari/537.36",Macintosh,Chrome,110.0.0.0,OS X,10_15_7,10952,1,response_2,Andrena flavipes,TRUE,,,
,,,,,html-keyboard-response,40,1044807,0.0-8.0-0.5,5,1,2023-03-14 15:41:21,27d22b55943edf8b2830e96048e50989,"Mozilla/5.0 (Macintosh; Intel Mac OS X 10_15_7) AppleWebKit/537.36 (KHTML, like Gecko) Chrome/110.0.0.0 Safari/537.36",Macintosh,Chrome,110.0.0.0,OS X,10_15_7,null,null,fixation,,,,,
,,,,,image-button-response,41,1056815,0.0-8.0-1.5,5,1,2023-03-14 15:41:21,27d22b55943edf8b2830e96048e50989,"Mozilla/5.0 (Macintosh; Intel Mac OS X 10_15_7) AppleWebKit/537.36 (KHTML, like Gecko) Chrome/110.0.0.0 Safari/537.36",Macintosh,Chrome,110.0.0.0,OS X,10_15_7,12002,0,response_2,Andrena bicolor,TRUE,,,
,,,,,html-button-response,42,1067365,0.0-9.0,5,1,2023-03-14 15:41:21,27d22b55943edf8b2830e96048e50989,"Mozilla/5.0 (Macintosh; Intel Mac OS X 10_15_7) AppleWebKit/537.36 (KHTML, like Gecko) Chrome/110.0.0.0 Safari/537.36",Macintosh,Chrome,110.0.0.0,OS X,10_15_7,10548,0,,,,,,
,,,,,survey-multi-choice,43,1114651,0.0-10.0,5,1,2023-03-14 15:41:21,27d22b55943edf8b2830e96048e50989,"Mozilla/5.0 (Macintosh; Intel Mac OS X 10_15_7) AppleWebKit/537.36 (KHTML, like Gecko) Chrome/110.0.0.0 Safari/537.36",Macintosh,Chrome,110.0.0.0,OS X,10_15_7,47282,"{""support_exp"":""neutral"",""causal_exp"":""somewhat agree"",""know_exp"":""somewhat agree"",""understand_exp"":""neutral""}",,,,,,"[0,1,2,3]"
,,,,,html-button-response,44,1118548,0.0-11.0,5,1,2023-03-14 15:41:21,27d22b55943edf8b2830e96048e50989,"Mozilla/5.0 (Macintosh; Intel Mac OS X 10_15_7) AppleWebKit/537.36 (KHTML, like Gecko) Chrome/110.0.0.0 Safari/537.36",Macintosh,Chrome,110.0.0.0,OS X,10_15_7,3887,0,,,,,,
TRUE,FALSE,[],[],[],preload,0,1835,0.0-0.0,3,1,2023-03-14 14:19:36,27d22b55943edf8b2830e96048e50989,"Mozilla/5.0 (iPhone; CPU iPhone OS 15_1 like Mac OS X) AppleWebKit/605.1.15 (KHTML, like Gecko) Version/15.1 Mobile/15E148 Safari/604.1",iPhone,Safari,15.1,iOS,15_1,,,,,,,,
,,,,,html-button-response,1,3578,0.0-1.0,3,1,2023-03-14 14:19:36,27d22b55943edf8b2830e96048e50989,"Mozilla/5.0 (iPhone; CPU iPhone OS 15_1 like Mac OS X) AppleWebKit/605.1.15 (KHTML, like Gecko) Version/15.1 Mobile/15E148 Safari/604.1",iPhone,Safari,15.1,iOS,15_1,1734,0,,,,,,
,,,,,html-button-response,2,37450,0.0-2.0,3,1,2023-03-14 14:19:36,27d22b55943edf8b2830e96048e50989,"Mozilla/5.0 (iPhone; CPU iPhone OS 15_1 like Mac OS X) AppleWebKit/605.1.15 (KHTML, like Gecko) Version/15.1 Mobile/15E148 Safari/604.1",iPhone,Safari,15.1,iOS,15_1,33870,0,,,,,,
,,,,,html-button-response,3,139228,0.0-3.0,3,1,2023-03-14 14:19:36,27d22b55943edf8b2830e96048e50989,"Mozilla/5.0 (iPhone; CPU iPhone OS 15_1 like Mac OS X) AppleWebKit/605.1.15 (KHTML, like Gecko) Version/15.1 Mobile/15E148 Safari/604.1",iPhone,Safari,15.1,iOS,15_1,101773,0,,,,,,
,,,,,html-keyboard-response,4,140741,0.0-4.0-0.0,3,1,2023-03-14 14:19:36,27d22b55943edf8b2830e96048e50989,"Mozilla/5.0 (iPhone; CPU iPhone OS 15_1 like Mac OS X) AppleWebKit/605.1.15 (KHTML, like Gecko) Version/15.1 Mobile/15E148 Safari/604.1",iPhone,Safari,15.1,iOS,15_1,null,null,fixation,,,,,
,,,,,image-button-response,5,177261,0.0-4.0-1.0,3,1,2023-03-14 14:19:36,27d22b55943edf8b2830e96048e50989,"Mozilla/5.0 (iPhone; CPU iPhone OS 15_1 like Mac OS X) AppleWebKit/605.1.15 (KHTML, like Gecko) Version/15.1 Mobile/15E148 Safari/604.1",iPhone,Safari,15.1,iOS,15_1,36496,3,response_1,Bombus hortorum,TRUE,,,
,,,,,html-keyboard-response,6,177767,0.0-4.0-0.1,3,1,2023-03-14 14:19:36,27d22b55943edf8b2830e96048e50989,"Mozilla/5.0 (iPhone; CPU iPhone OS 15_1 like Mac OS X) AppleWebKit/605.1.15 (KHTML, like Gecko) Version/15.1 Mobile/15E148 Safari/604.1",iPhone,Safari,15.1,iOS,15_1,null,null,fixation,,,,,
,,,,,image-button-response,7,202775,0.0-4.0-1.1,3,1,2023-03-14 14:19:36,27d22b55943edf8b2830e96048e50989,"Mozilla/5.0 (iPhone; CPU iPhone OS 15_1 like Mac OS X) AppleWebKit/605.1.15 (KHTML, like Gecko) Version/15.1 Mobile/15E148 Safari/604.1",iPhone,Safari,15.1,iOS,15_1,24985,2,response_1,Andrena fulva,TRUE,,,
,,,,,html-keyboard-response,8,203031,0.0-4.0-0.2,3,1,2023-03-14 14:19:36,27d22b55943edf8b2830e96048e50989,"Mozilla/5.0 (iPhone; CPU iPhone OS 15_1 like Mac OS X) AppleWebKit/605.1.15 (KHTML, like Gecko) Version/15.1 Mobile/15E148 Safari/604.1",iPhone,Safari,15.1,iOS,15_1,null,null,fixation,,,,,
,,,,,image-button-response,9,207765,0.0-4.0-1.2,3,1,2023-03-14 14:19:36,27d22b55943edf8b2830e96048e50989,"Mozilla/5.0 (iPhone; CPU iPhone OS 15_1 like Mac OS X) AppleWebKit/605.1.15 (KHTML, like Gecko) Version/15.1 Mobile/15E148 Safari/604.1",iPhone,Safari,15.1,iOS,15_1,4714,1,response_1,Andrena bicolor,FALSE,,,
,,,,,html-keyboard-response,10,208270,0.0-4.0-0.3,3,1,2023-03-14 14:19:36,27d22b55943edf8b2830e96048e50989,"Mozilla/5.0 (iPhone; CPU iPhone OS 15_1 like Mac OS X) AppleWebKit/605.1.15 (KHTML, like Gecko) Version/15.1 Mobile/15E148 Safari/604.1",iPhone,Safari,15.1,iOS,15_1,null,null,fixation,,,,,
,,,,,image-button-response,11,213125,0.0-4.0-1.3,3,1,2023-03-14 14:19:36,27d22b55943edf8b2830e96048e50989,"Mozilla/5.0 (iPhone; CPU iPhone OS 15_1 like Mac OS X) AppleWebKit/605.1.15 (KHTML, like Gecko) Version/15.1 Mobile/15E148 Safari/604.1",iPhone,Safari,15.1,iOS,15_1,4835,4,response_1,Bombus pratorum,FALSE,,,
,,,,,html-keyboard-response,12,213629,0.0-4.0-0.4,3,1,2023-03-14 14:19:36,27d22b55943edf8b2830e96048e50989,"Mozilla/5.0 (iPhone; CPU iPhone OS 15_1 like Mac OS X) AppleWebKit/605.1.15 (KHTML, like Gecko) Version/15.1 Mobile/15E148 Safari/604.1",iPhone,Safari,15.1,iOS,15_1,null,null,fixation,,,,,
,,,,,image-button-response,13,222364,0.0-4.0-1.4,3,1,2023-03-14 14:19:36,27d22b55943edf8b2830e96048e50989,"Mozilla/5.0 (iPhone; CPU iPhone OS 15_1 like Mac OS X) AppleWebKit/605.1.15 (KHTML, like Gecko) Version/15.1 Mobile/15E148 Safari/604.1",iPhone,Safari,15.1,iOS,15_1,8719,5,response_1,Bombus pratorum,TRUE,,,
,,,,,html-keyboard-response,14,222869,0.0-4.0-0.5,3,1,2023-03-14 14:19:36,27d22b55943edf8b2830e96048e50989,"Mozilla/5.0 (iPhone; CPU iPhone OS 15_1 like Mac OS X) AppleWebKit/605.1.15 (KHTML, like Gecko) Version/15.1 Mobile/15E148 Safari/604.1",iPhone,Safari,15.1,iOS,15_1,null,null,fixation,,,,,
,,,,,image-button-response,15,228423,0.0-4.0-1.5,3,1,2023-03-14 14:19:36,27d22b55943edf8b2830e96048e50989,"Mozilla/5.0 (iPhone; CPU iPhone OS 15_1 like Mac OS X) AppleWebKit/605.1.15 (KHTML, like Gecko) Version/15.1 Mobile/15E148 Safari/604.1",iPhone,Safari,15.1,iOS,15_1,5539,0,response_1,Andrena bicolor,TRUE,,,
,,,,,html-button-response,16,236919,0.0-5.0,3,1,2023-03-14 14:19:36,27d22b55943edf8b2830e96048e50989,"Mozilla/5.0 (iPhone; CPU iPhone OS 15_1 like Mac OS X) AppleWebKit/605.1.15 (KHTML, like Gecko) Version/15.1 Mobile/15E148 Safari/604.1",iPhone,Safari,15.1,iOS,15_1,8490,0,,,,,,
,,,,,html-keyboard-response,17,237425,0.0-6.0-0.0,3,1,2023-03-14 14:19:36,27d22b55943edf8b2830e96048e50989,"Mozilla/5.0 (iPhone; CPU iPhone OS 15_1 like Mac OS X) AppleWebKit/605.1.15 (KHTML, like Gecko) Version/15.1 Mobile/15E148 Safari/604.1",iPhone,Safari,15.1,iOS,15_1,null,null,fixation,,,,,
,,,,,image-button-response,18,285934,0.0-6.0-1.0,3,1,2023-03-14 14:19:36,27d22b55943edf8b2830e96048e50989,"Mozilla/5.0 (iPhone; CPU iPhone OS 15_1 like Mac OS X) AppleWebKit/605.1.15 (KHTML, like Gecko) Version/15.1 Mobile/15E148 Safari/604.1",iPhone,Safari,15.1,iOS,15_1,48486,5,response_pred,Bombus lucorum,FALSE,Bombus hortorum,it has fuzzy yellow and black stripes,
,,,,,html-keyboard-response,19,286439,0.0-6.0-0.1,3,1,2023-03-14 14:19:36,27d22b55943edf8b2830e96048e50989,"Mozilla/5.0 (iPhone; CPU iPhone OS 15_1 like Mac OS X) AppleWebKit/605.1.15 (KHTML, like Gecko) Version/15.1 Mobile/15E148 Safari/604.1",iPhone,Safari,15.1,iOS,15_1,null,null,fixation,,,,,
,,,,,image-button-response,20,303728,0.0-6.0-1.1,3,1,2023-03-14 14:19:36,27d22b55943edf8b2830e96048e50989,"Mozilla/5.0 (iPhone; CPU iPhone OS 15_1 like Mac OS X) AppleWebKit/605.1.15 (KHTML, like Gecko) Version/15.1 Mobile/15E148 Safari/604.1",iPhone,Safari,15.1,iOS,15_1,17266,5,response_pred,Bombus pratorum,TRUE,Bombus lucorum,it has fuzzy yellow and black stripes,
,,,,,html-keyboard-response,21,304484,0.0-6.0-0.2,3,1,2023-03-14 14:19:36,27d22b55943edf8b2830e96048e50989,"Mozilla/5.0 (iPhone; CPU iPhone OS 15_1 like Mac OS X) AppleWebKit/605.1.15 (KHTML, like Gecko) Version/15.1 Mobile/15E148 Safari/604.1",iPhone,Safari,15.1,iOS,15_1,null,null,fixation,,,,,
,,,,,image-button-response,22,316866,0.0-6.0-1.2,3,1,2023-03-14 14:19:36,27d22b55943edf8b2830e96048e50989,"Mozilla/5.0 (iPhone; CPU iPhone OS 15_1 like Mac OS X) AppleWebKit/605.1.15 (KHTML, like Gecko) Version/15.1 Mobile/15E148 Safari/604.1",iPhone,Safari,15.1,iOS,15_1,12354,3,response_pred,Bombus hortorum,TRUE,Bombus pratorum,it has fuzzy yellow and black stripes,
,,,,,html-keyboard-response,23,317620,0.0-6.0-0.3,3,1,2023-03-14 14:19:36,27d22b55943edf8b2830e96048e50989,"Mozilla/5.0 (iPhone; CPU iPhone OS 15_1 like Mac OS X) AppleWebKit/605.1.15 (KHTML, like Gecko) Version/15.1 Mobile/15E148 Safari/604.1",iPhone,Safari,15.1,iOS,15_1,null,null,fixation,,,,,
,,,,,image-button-response,24,353269,0.0-6.0-1.3,3,1,2023-03-14 14:19:36,27d22b55943edf8b2830e96048e50989,"Mozilla/5.0 (iPhone; CPU iPhone OS 15_1 like Mac OS X) AppleWebKit/605.1.15 (KHTML, like Gecko) Version/15.1 Mobile/15E148 Safari/604.1",iPhone,Safari,15.1,iOS,15_1,35613,1,response_pred,Andrena flavipes,TRUE,Andrena flavipes,it has a smooth shiny dark brown texture,
,,,,,html-keyboard-response,25,354026,0.0-6.0-0.4,3,1,2023-03-14 14:19:36,27d22b55943edf8b2830e96048e50989,"Mozilla/5.0 (iPhone; CPU iPhone OS 15_1 like Mac OS X) AppleWebKit/605.1.15 (KHTML, like Gecko) Version/15.1 Mobile/15E148 Safari/604.1",iPhone,Safari,15.1,iOS,15_1,null,null,fixation,,,,,
,,,,,image-button-response,26,378117,0.0-6.0-1.4,3,1,2023-03-14 14:19:36,27d22b55943edf8b2830e96048e50989,"Mozilla/5.0 (iPhone; CPU iPhone OS 15_1 like Mac OS X) AppleWebKit/605.1.15 (KHTML, like Gecko) Version/15.1 Mobile/15E148 Safari/604.1",iPhone,Safari,15.1,iOS,15_1,24070,0,response_pred,Andrena bicolor,TRUE,Andrena bicolor,it is fuzzy dark orange and it has a smooth shiny dark brown texture,
,,,,,html-keyboard-response,27,378874,0.0-6.0-0.5,3,1,2023-03-14 14:19:36,27d22b55943edf8b2830e96048e50989,"Mozilla/5.0 (iPhone; CPU iPhone OS 15_1 like Mac OS X) AppleWebKit/605.1.15 (KHTML, like Gecko) Version/15.1 Mobile/15E148 Safari/604.1",iPhone,Safari,15.1,iOS,15_1,null,null,fixation,,,,,
,,,,,image-button-response,28,387311,0.0-6.0-1.5,3,1,2023-03-14 14:19:36,27d22b55943edf8b2830e96048e50989,"Mozilla/5.0 (iPhone; CPU iPhone OS 15_1 like Mac OS X) AppleWebKit/605.1.15 (KHTML, like Gecko) Version/15.1 Mobile/15E148 Safari/604.1",iPhone,Safari,15.1,iOS,15_1,8418,2,response_pred,Andrena fulva,TRUE,Andrena fulva,it is fuzzy dark orange and it has a smooth shiny dark brown texture,
,,,,,html-button-response,29,390792,0.0-7.0,3,1,2023-03-14 14:19:36,27d22b55943edf8b2830e96048e50989,"Mozilla/5.0 (iPhone; CPU iPhone OS 15_1 like Mac OS X) AppleWebKit/605.1.15 (KHTML, like Gecko) Version/15.1 Mobile/15E148 Safari/604.1",iPhone,Safari,15.1,iOS,15_1,3474,0,,,,,,
,,,,,html-keyboard-response,30,391549,0.0-8.0-0.0,3,1,2023-03-14 14:19:36,27d22b55943edf8b2830e96048e50989,"Mozilla/5.0 (iPhone; CPU iPhone OS 15_1 like Mac OS X) AppleWebKit/605.1.15 (KHTML, like Gecko) Version/15.1 Mobile/15E148 Safari/604.1",iPhone,Safari,15.1,iOS,15_1,null,null,fixation,,,,,
,,,,,image-button-response,31,422149,0.0-8.0-1.0,3,1,2023-03-14 14:19:36,27d22b55943edf8b2830e96048e50989,"Mozilla/5.0 (iPhone; CPU iPhone OS 15_1 like Mac OS X) AppleWebKit/605.1.15 (KHTML, like Gecko) Version/15.1 Mobile/15E148 Safari/604.1",iPhone,Safari,15.1,iOS,15_1,30584,0,response_2,Andrena flavipes,FALSE,,,
,,,,,html-keyboard-response,32,422656,0.0-8.0-0.1,3,1,2023-03-14 14:19:36,27d22b55943edf8b2830e96048e50989,"Mozilla/5.0 (iPhone; CPU iPhone OS 15_1 like Mac OS X) AppleWebKit/605.1.15 (KHTML, like Gecko) Version/15.1 Mobile/15E148 Safari/604.1",iPhone,Safari,15.1,iOS,15_1,null,null,fixation,,,,,
,,,,,image-button-response,33,438666,0.0-8.0-1.1,3,1,2023-03-14 14:19:36,27d22b55943edf8b2830e96048e50989,"Mozilla/5.0 (iPhone; CPU iPhone OS 15_1 like Mac OS X) AppleWebKit/605.1.15 (KHTML, like Gecko) Version/15.1 Mobile/15E148 Safari/604.1",iPhone,Safari,15.1,iOS,15_1,15976,0,response_2,Bombus lucorum,FALSE,,,
,,,,,html-keyboard-response,34,439174,0.0-8.0-0.2,3,1,2023-03-14 14:19:36,27d22b55943edf8b2830e96048e50989,"Mozilla/5.0 (iPhone; CPU iPhone OS 15_1 like Mac OS X) AppleWebKit/605.1.15 (KHTML, like Gecko) Version/15.1 Mobile/15E148 Safari/604.1",iPhone,Safari,15.1,iOS,15_1,null,null,fixation,,,,,
,,,,,image-button-response,35,447515,0.0-8.0-1.2,3,1,2023-03-14 14:19:36,27d22b55943edf8b2830e96048e50989,"Mozilla/5.0 (iPhone; CPU iPhone OS 15_1 like Mac OS X) AppleWebKit/605.1.15 (KHTML, like Gecko) Version/15.1 Mobile/15E148 Safari/604.1",iPhone,Safari,15.1,iOS,15_1,8315,3,response_2,Bombus hortorum,TRUE,,,
,,,,,html-keyboard-response,36,448272,0.0-8.0-0.3,3,1,2023-03-14 14:19:36,27d22b55943edf8b2830e96048e50989,"Mozilla/5.0 (iPhone; CPU iPhone OS 15_1 like Mac OS X) AppleWebKit/605.1.15 (KHTML, like Gecko) Version/15.1 Mobile/15E148 Safari/604.1",iPhone,Safari,15.1,iOS,15_1,null,null,fixation,,,,,
,,,,,image-button-response,37,455641,0.0-8.0-1.3,3,1,2023-03-14 14:19:36,27d22b55943edf8b2830e96048e50989,"Mozilla/5.0 (iPhone; CPU iPhone OS 15_1 like Mac OS X) AppleWebKit/605.1.15 (KHTML, like Gecko) Version/15.1 Mobile/15E148 Safari/604.1",iPhone,Safari,15.1,iOS,15_1,7340,5,response_2,Andrena fulva,FALSE,,,
,,,,,html-keyboard-response,38,456148,0.0-8.0-0.4,3,1,2023-03-14 14:19:36,27d22b55943edf8b2830e96048e50989,"Mozilla/5.0 (iPhone; CPU iPhone OS 15_1 like Mac OS X) AppleWebKit/605.1.15 (KHTML, like Gecko) Version/15.1 Mobile/15E148 Safari/604.1",iPhone,Safari,15.1,iOS,15_1,null,null,fixation,,,,,
,,,,,image-button-response,39,469549,0.0-8.0-1.4,3,1,2023-03-14 14:19:36,27d22b55943edf8b2830e96048e50989,"Mozilla/5.0 (iPhone; CPU iPhone OS 15_1 like Mac OS X) AppleWebKit/605.1.15 (KHTML, like Gecko) Version/15.1 Mobile/15E148 Safari/604.1",iPhone,Safari,15.1,iOS,15_1,13375,0,response_2,Andrena flavipes,FALSE,,,
,,,,,html-keyboard-response,40,469807,0.0-8.0-0.5,3,1,2023-03-14 14:19:36,27d22b55943edf8b2830e96048e50989,"Mozilla/5.0 (iPhone; CPU iPhone OS 15_1 like Mac OS X) AppleWebKit/605.1.15 (KHTML, like Gecko) Version/15.1 Mobile/15E148 Safari/604.1",iPhone,Safari,15.1,iOS,15_1,null,null,fixation,,,,,
,,,,,image-button-response,41,477462,0.0-8.0-1.5,3,1,2023-03-14 14:19:36,27d22b55943edf8b2830e96048e50989,"Mozilla/5.0 (iPhone; CPU iPhone OS 15_1 like Mac OS X) AppleWebKit/605.1.15 (KHTML, like Gecko) Version/15.1 Mobile/15E148 Safari/604.1",iPhone,Safari,15.1,iOS,15_1,7636,5,response_2,Bombus lucorum,FALSE,,,
,,,,,html-button-response,42,481745,0.0-9.0,3,1,2023-03-14 14:19:36,27d22b55943edf8b2830e96048e50989,"Mozilla/5.0 (iPhone; CPU iPhone OS 15_1 like Mac OS X) AppleWebKit/605.1.15 (KHTML, like Gecko) Version/15.1 Mobile/15E148 Safari/604.1",iPhone,Safari,15.1,iOS,15_1,4276,0,,,,,,
,,,,,survey-multi-choice,43,517309,0.0-10.0,3,1,2023-03-14 14:19:36,27d22b55943edf8b2830e96048e50989,"Mozilla/5.0 (iPhone; CPU iPhone OS 15_1 like Mac OS X) AppleWebKit/605.1.15 (KHTML, like Gecko) Version/15.1 Mobile/15E148 Safari/604.1",iPhone,Safari,15.1,iOS,15_1,35550,"{""support_exp"":""somewhat agree"",""causal_exp"":""neutral"",""know_exp"":""somewhat agree"",""understand_exp"":""strongly agree""}",,,,,,"[0,1,2,3]"
,,,,,html-button-response,44,518908,0.0-11.0,3,1,2023-03-14 14:19:36,27d22b55943edf8b2830e96048e50989,"Mozilla/5.0 (iPhone; CPU iPhone OS 15_1 like Mac OS X) AppleWebKit/605.1.15 (KHTML, like Gecko) Version/15.1 Mobile/15E148 Safari/604.1",iPhone,Safari,15.1,iOS,15_1,1579,0,,,,,,