success,timeout,failed_images,failed_audio,failed_video,trial_type,trial_index,time_elapsed,internal_node_id,run_id,condition,recorded_at,source_code_version,ip,user_agent,device,browser,browser_version,platform,platform_version,rt,stimulus,response,task,correct_response,correct,pred_class,pred_concept,question_order,fbclid
true,false,[],[],[],preload,0,740,0.0-0.0,12,1,2023-04-13 07:43:03,1075581b3d7bed61cf7b4848055b0d0e,,"Mozilla/5.0 (Windows NT 10.0; Win64; x64) AppleWebKit/537.36 (KHTML, like Gecko) Chrome/112.0.0.0 Safari/537.36 Edg/112.0.1722.39",WebKit,Edge,112.0.1722.39,Windows,10.0,,,,,,,
,,,,,html-button-response,1,16897,0.0-1.0,12,1,2023-04-13 07:43:03,1075581b3d7bed61cf7b4848055b0d0e,,"Mozilla/5.0 (Windows NT 10.0; Win64; x64) AppleWebKit/537.36 (KHTML, like Gecko) Chrome/112.0.0.0 Safari/537.36 Edg/112.0.1722.39",WebKit,Edge,112.0.1722.39,Windows,10.0,16156,"<strong>Welcome to the <i>beexplainable</i> experiment!</strong>
               <p><i>Note</i>: Please only do this experiment <strong>once</strong>.</p>
               <p>We also recommend you use a device with a wider screen (i.e. laptop, tablet) <strong>not</strong> your phone.",0,,,,
,,,,,html-button-response,2,23403,0.0-2.0,12,1,2023-04-13 07:43:03,1075581b3d7bed61cf7b4848055b0d0e,,"Mozilla/5.0 (Windows NT 10.0; Win64; x64) AppleWebKit/537.36 (KHTML, like Gecko) Chrome/112.0.0.0 Safari/537.36 Edg/112.0.1722.39",WebKit,Edge,112.0.1722.39,Windows,10.0,6505,"	  
      <p>In this experiment, you will be shown 30 images of 5 
	wild bee species and be asked to solve three tasks.</p><p><strong>Task 1 (10 images)</strong>: Assign a species to the
	test image based on the prototypes shown on the right half of the page.</p>
      <p><strong>Task 2 (10 images)</strong>: Assign a species while also knowing our model's prediction (marked red in title).</p>
	    <p><strong>Task 3 (10 images)</strong>: Assign again a species only with the help of the prototypes 
	    (no model prediction revealed).</p><p><i>Note</i>: From this moment on, please avoid resizing your browser window, as this may cause 
	    the zooming tool to malfunction.</p>
    ",0,,,,
,,,,,html-button-response,3,63098,0.0-3.0,12,1,2023-04-13 07:43:03,1075581b3d7bed61cf7b4848055b0d0e,,"Mozilla/5.0 (Windows NT 10.0; Win64; x64) AppleWebKit/537.36 (KHTML, like Gecko) Chrome/112.0.0.0 Safari/537.36 Edg/112.0.1722.39",WebKit,Edge,112.0.1722.39,Windows,10.0,39692,"
  <div id=""div_row"">
      <div class=""row"">
          <div class=""column"">
              <div class=""card"">
                  <img src=""img/Andrena_bicolor_proto.jpg"" alt=""bico"">
                  <h5>Andrena bicolor</h5>
              </div>
          </div>

          <div class=""column"">
              <div class=""card"">
                  <img src=""img/Andrena_flavipes_proto.jpg"" alt=""flavi"">
                  <h5>Andrena flavipes</h5>
              </div>
          </div>

          <div class=""column"">
              <div class=""card"">
                  <img src=""img/Andrena_fulva_proto.jpg"" alt=""fulva"">
                  <h5>Andrena fulva</h5>
              </div>
          </div>
      </div>

      <div class=""row"">
          <div class=""column"">
              <div class=""card"">
                  <img src=""img/Bombus_lucorum_proto.jpg"" alt=""luco"">
                  <h5>Bombus lucorum</h5>
              </div>
          </div>

          <div class=""column"">
              <div class=""card"">
                  <img src=""img/Bombus_pratorum_proto.jpg"" alt=""prato"">
                  <h5>Bombus pratorum</h5>
              </div>
          </div>
          
          <div class=""column"">
              
          </div>
      </div>
  </div><div id=""just_protos_prompt_div""><p>Before starting the experiment, take your time and look at the 5 samples on the right.
	Each of them was chosen as a prototype of their species. Throughout the whole experiment you will be shown these representative samples 
	next to the test samples to help you decide which species the test sample belongs to. 
	<p>Whenever you are ready, click <strong>Continue</strong> to start the first task:</p>
	<p><strong>Task 1 (10 images): Assign a species to the
	test image based on the prototypes.</strong></p></div>",0,,,,
,,,,,html-keyboard-response,4,64863,0.0-4.0-0.0,12,1,2023-04-13 07:43:03,1075581b3d7bed61cf7b4848055b0d0e,,"Mozilla/5.0 (Windows NT 10.0; Win64; x64) AppleWebKit/537.36 (KHTML, like Gecko) Chrome/112.0.0.0 Safari/537.36 Edg/112.0.1722.39",WebKit,Edge,112.0.1722.39,Windows,10.0,null,"<div style=""font-size:60px;"">+</div>",null,fixation,,,
,,,,,image-button-response,5,76521,0.0-4.0-1.0,12,1,2023-04-13 07:43:03,1075581b3d7bed61cf7b4848055b0d0e,,"Mozilla/5.0 (Windows NT 10.0; Win64; x64) AppleWebKit/537.36 (KHTML, like Gecko) Chrome/112.0.0.0 Safari/537.36 Edg/112.0.1722.39",WebKit,Edge,112.0.1722.39,Windows,10.0,11651,img/Bombus_terrestris_55204752_1.jpg,4,response_1,Bombus lucorum,false,
,,,,,html-keyboard-response,6,76775,0.0-4.0-0.1,12,1,2023-04-13 07:43:03,1075581b3d7bed61cf7b4848055b0d0e,,"Mozilla/5.0 (Windows NT 10.0; Win64; x64) AppleWebKit/537.36 (KHTML, like Gecko) Chrome/112.0.0.0 Safari/537.36 Edg/112.0.1722.39",WebKit,Edge,112.0.1722.39,Windows,10.0,null,"<div style=""font-size:60px;"">+</div>",null,fixation,,,
,,,,,image-button-response,7,88672,0.0-4.0-1.1,12,1,2023-04-13 07:43:03,1075581b3d7bed61cf7b4848055b0d0e,,"Mozilla/5.0 (Windows NT 10.0; Win64; x64) AppleWebKit/537.36 (KHTML, like Gecko) Chrome/112.0.0.0 Safari/537.36 Edg/112.0.1722.39",WebKit,Edge,112.0.1722.39,Windows,10.0,11894,img/Andrena_bicolor_42078638_3.jpg,2,response_1,Andrena bicolor,false,
,,,,,html-keyboard-response,8,89426,0.0-4.0-0.2,12,1,2023-04-13 07:43:03,1075581b3d7bed61cf7b4848055b0d0e,,"Mozilla/5.0 (Windows NT 10.0; Win64; x64) AppleWebKit/537.36 (KHTML, like Gecko) Chrome/112.0.0.0 Safari/537.36 Edg/112.0.1722.39",WebKit,Edge,112.0.1722.39,Windows,10.0,null,"<div style=""font-size:60px;"">+</div>",null,fixation,,,
,,,,,image-button-response,9,94536,0.0-4.0-1.2,12,1,2023-04-13 07:43:03,1075581b3d7bed61cf7b4848055b0d0e,,"Mozilla/5.0 (Windows NT 10.0; Win64; x64) AppleWebKit/537.36 (KHTML, like Gecko) Chrome/112.0.0.0 Safari/537.36 Edg/112.0.1722.39",WebKit,Edge,112.0.1722.39,Windows,10.0,5107,img/Bombus_pratorum_21992207_1.jpg,4,response_1,Bombus pratorum,true,
,,,,,html-keyboard-response,10,95300,0.0-4.0-0.3,12,1,2023-04-13 07:43:03,1075581b3d7bed61cf7b4848055b0d0e,,"Mozilla/5.0 (Windows NT 10.0; Win64; x64) AppleWebKit/537.36 (KHTML, like Gecko) Chrome/112.0.0.0 Safari/537.36 Edg/112.0.1722.39",WebKit,Edge,112.0.1722.39,Windows,10.0,null,"<div style=""font-size:60px;"">+</div>",null,fixation,,,
,,,,,image-button-response,11,114521,0.0-4.0-1.3,12,1,2023-04-13 07:43:03,1075581b3d7bed61cf7b4848055b0d0e,,"Mozilla/5.0 (Windows NT 10.0; Win64; x64) AppleWebKit/537.36 (KHTML, like Gecko) Chrome/112.0.0.0 Safari/537.36 Edg/112.0.1722.39",WebKit,Edge,112.0.1722.39,Windows,10.0,19216,img/Andrena_fulva_21366312_1.jpg,2,response_1,Andrena fulva,true,
,,,,,html-keyboard-response,12,114783,0.0-4.0-0.4,12,1,2023-04-13 07:43:03,1075581b3d7bed61cf7b4848055b0d0e,,"Mozilla/5.0 (Windows NT 10.0; Win64; x64) AppleWebKit/537.36 (KHTML, like Gecko) Chrome/112.0.0.0 Safari/537.36 Edg/112.0.1722.39",WebKit,Edge,112.0.1722.39,Windows,10.0,null,"<div style=""font-size:60px;"">+</div>",null,fixation,,,
,,,,,image-button-response,13,123018,0.0-4.0-1.4,12,1,2023-04-13 07:43:03,1075581b3d7bed61cf7b4848055b0d0e,,"Mozilla/5.0 (Windows NT 10.0; Win64; x64) AppleWebKit/537.36 (KHTML, like Gecko) Chrome/112.0.0.0 Safari/537.36 Edg/112.0.1722.39",WebKit,Edge,112.0.1722.39,Windows,10.0,8232,img/Andrena_flavipes_40832925_2.jpg,1,response_1,Andrena flavipes,true,
,,,,,html-keyboard-response,14,123525,0.0-4.0-0.5,12,1,2023-04-13 07:43:03,1075581b3d7bed61cf7b4848055b0d0e,,"Mozilla/5.0 (Windows NT 10.0; Win64; x64) AppleWebKit/537.36 (KHTML, like Gecko) Chrome/112.0.0.0 Safari/537.36 Edg/112.0.1722.39",WebKit,Edge,112.0.1722.39,Windows,10.0,null,"<div style=""font-size:60px;"">+</div>",null,fixation,,,
,,,,,image-button-response,15,133612,0.0-4.0-1.5,12,1,2023-04-13 07:43:03,1075581b3d7bed61cf7b4848055b0d0e,,"Mozilla/5.0 (Windows NT 10.0; Win64; x64) AppleWebKit/537.36 (KHTML, like Gecko) Chrome/112.0.0.0 Safari/537.36 Edg/112.0.1722.39",WebKit,Edge,112.0.1722.39,Windows,10.0,10084,img/Andrena_fulva_24609371_2.jpg,2,response_1,Andrena fulva,true,
,,,,,html-keyboard-response,16,134366,0.0-4.0-0.6,12,1,2023-04-13 07:43:03,1075581b3d7bed61cf7b4848055b0d0e,,"Mozilla/5.0 (Windows NT 10.0; Win64; x64) AppleWebKit/537.36 (KHTML, like Gecko) Chrome/112.0.0.0 Safari/537.36 Edg/112.0.1722.39",WebKit,Edge,112.0.1722.39,Windows,10.0,null,"<div style=""font-size:60px;"">+</div>",null,fixation,,,
,,,,,image-button-response,17,141726,0.0-4.0-1.6,12,1,2023-04-13 07:43:03,1075581b3d7bed61cf7b4848055b0d0e,,"Mozilla/5.0 (Windows NT 10.0; Win64; x64) AppleWebKit/537.36 (KHTML, like Gecko) Chrome/112.0.0.0 Safari/537.36 Edg/112.0.1722.39",WebKit,Edge,112.0.1722.39,Windows,10.0,7356,img/Bombus_pratorum_27515055_2.jpg,4,response_1,Bombus pratorum,true,
,,,,,html-keyboard-response,18,142480,0.0-4.0-0.7,12,1,2023-04-13 07:43:03,1075581b3d7bed61cf7b4848055b0d0e,,"Mozilla/5.0 (Windows NT 10.0; Win64; x64) AppleWebKit/537.36 (KHTML, like Gecko) Chrome/112.0.0.0 Safari/537.36 Edg/112.0.1722.39",WebKit,Edge,112.0.1722.39,Windows,10.0,null,"<div style=""font-size:60px;"">+</div>",null,fixation,,,
,,,,,image-button-response,19,149761,0.0-4.0-1.7,12,1,2023-04-13 07:43:03,1075581b3d7bed61cf7b4848055b0d0e,,"Mozilla/5.0 (Windows NT 10.0; Win64; x64) AppleWebKit/537.36 (KHTML, like Gecko) Chrome/112.0.0.0 Safari/537.36 Edg/112.0.1722.39",WebKit,Edge,112.0.1722.39,Windows,10.0,7278,img/Andrena_fulva_11872393_2.jpg,2,response_1,Andrena fulva,true,
,,,,,html-keyboard-response,20,150528,0.0-4.0-0.8,12,1,2023-04-13 07:43:03,1075581b3d7bed61cf7b4848055b0d0e,,"Mozilla/5.0 (Windows NT 10.0; Win64; x64) AppleWebKit/537.36 (KHTML, like Gecko) Chrome/112.0.0.0 Safari/537.36 Edg/112.0.1722.39",WebKit,Edge,112.0.1722.39,Windows,10.0,null,"<div style=""font-size:60px;"">+</div>",null,fixation,,,
,,,,,image-button-response,21,156275,0.0-4.0-1.8,12,1,2023-04-13 07:43:03,1075581b3d7bed61cf7b4848055b0d0e,,"Mozilla/5.0 (Windows NT 10.0; Win64; x64) AppleWebKit/537.36 (KHTML, like Gecko) Chrome/112.0.0.0 Safari/537.36 Edg/112.0.1722.39",WebKit,Edge,112.0.1722.39,Windows,10.0,5745,img/Bombus_terrestris_50405525_1.jpg,3,response_1,Bombus lucorum,true,
,,,,,html-keyboard-response,22,156790,0.0-4.0-0.9,12,1,2023-04-13 07:43:03,1075581b3d7bed61cf7b4848055b0d0e,,"Mozilla/5.0 (Windows NT 10.0; Win64; x64) AppleWebKit/537.36 (KHTML, like Gecko) Chrome/112.0.0.0 Safari/537.36 Edg/112.0.1722.39",WebKit,Edge,112.0.1722.39,Windows,10.0,null,"<div style=""font-size:60px;"">+</div>",null,fixation,,,
,,,,,image-button-response,23,167194,0.0-4.0-1.9,12,1,2023-04-13 07:43:03,1075581b3d7bed61cf7b4848055b0d0e,,"Mozilla/5.0 (Windows NT 10.0; Win64; x64) AppleWebKit/537.36 (KHTML, like Gecko) Chrome/112.0.0.0 Safari/537.36 Edg/112.0.1722.39",WebKit,Edge,112.0.1722.39,Windows,10.0,10401,img/Andrena_fulva_25074448_1.jpg,2,response_1,Andrena fulva,true,
,,,,,html-button-response,24,172977,0.0-5.0,12,1,2023-04-13 07:43:03,1075581b3d7bed61cf7b4848055b0d0e,,"Mozilla/5.0 (Windows NT 10.0; Win64; x64) AppleWebKit/537.36 (KHTML, like Gecko) Chrome/112.0.0.0 Safari/537.36 Edg/112.0.1722.39",WebKit,Edge,112.0.1722.39,Windows,10.0,5782,"<p>Num. trials: 10, out of which 8 were correct.</p>
	      <p>You responded correctly on 80% of the trials.</p>
        <p>Your average response time was 9696ms.</p>
        <p>Click <strong>Continue</strong> to start the next task:</p>
        <p><strong>Task 2 (10 images): Assign a species while also knowing our model's prediction (marked red in title).</strong></p>",0,,,,
,,,,,html-keyboard-response,25,173728,0.0-6.0-0.0,12,1,2023-04-13 07:43:03,1075581b3d7bed61cf7b4848055b0d0e,,"Mozilla/5.0 (Windows NT 10.0; Win64; x64) AppleWebKit/537.36 (KHTML, like Gecko) Chrome/112.0.0.0 Safari/537.36 Edg/112.0.1722.39",WebKit,Edge,112.0.1722.39,Windows,10.0,null,"<div style=""font-size:60px;"">+</div>",null,fixation,,,
,,,,,image-button-response,26,184881,0.0-6.0-1.0,12,1,2023-04-13 07:43:03,1075581b3d7bed61cf7b4848055b0d0e,,"Mozilla/5.0 (Windows NT 10.0; Win64; x64) AppleWebKit/537.36 (KHTML, like Gecko) Chrome/112.0.0.0 Safari/537.36 Edg/112.0.1722.39",WebKit,Edge,112.0.1722.39,Windows,10.0,11150,img/Bombus_pratorum_21985654_1.jpg,4,response_pred,Bombus pratorum,true,Bombus pratorum
,,,,,html-keyboard-response,27,185142,0.0-6.0-0.1,12,1,2023-04-13 07:43:03,1075581b3d7bed61cf7b4848055b0d0e,,"Mozilla/5.0 (Windows NT 10.0; Win64; x64) AppleWebKit/537.36 (KHTML, like Gecko) Chrome/112.0.0.0 Safari/537.36 Edg/112.0.1722.39",WebKit,Edge,112.0.1722.39,Windows,10.0,null,"<div style=""font-size:60px;"">+</div>",null,fixation,,,
,,,,,image-button-response,28,190484,0.0-6.0-1.1,12,1,2023-04-13 07:43:03,1075581b3d7bed61cf7b4848055b0d0e,,"Mozilla/5.0 (Windows NT 10.0; Win64; x64) AppleWebKit/537.36 (KHTML, like Gecko) Chrome/112.0.0.0 Safari/537.36 Edg/112.0.1722.39",WebKit,Edge,112.0.1722.39,Windows,10.0,5338,img/Bombus_pratorum_45797034_2.jpg,4,response_pred,Bombus pratorum,true,Bombus pratorum
,,,,,html-keyboard-response,29,190738,0.0-6.0-0.2,12,1,2023-04-13 07:43:03,1075581b3d7bed61cf7b4848055b0d0e,,"Mozilla/5.0 (Windows NT 10.0; Win64; x64) AppleWebKit/537.36 (KHTML, like Gecko) Chrome/112.0.0.0 Safari/537.36 Edg/112.0.1722.39",WebKit,Edge,112.0.1722.39,Windows,10.0,null,"<div style=""font-size:60px;"">+</div>",null,fixation,,,
,,,,,image-button-response,30,195334,0.0-6.0-1.2,12,1,2023-04-13 07:43:03,1075581b3d7bed61cf7b4848055b0d0e,,"Mozilla/5.0 (Windows NT 10.0; Win64; x64) AppleWebKit/537.36 (KHTML, like Gecko) Chrome/112.0.0.0 Safari/537.36 Edg/112.0.1722.39",WebKit,Edge,112.0.1722.39,Windows,10.0,4592,img/Andrena_fulva_78969818_1.jpg,2,response_pred,Andrena fulva,true,Andrena fulva
,,,,,html-keyboard-response,31,195593,0.0-6.0-0.3,12,1,2023-04-13 07:43:03,1075581b3d7bed61cf7b4848055b0d0e,,"Mozilla/5.0 (Windows NT 10.0; Win64; x64) AppleWebKit/537.36 (KHTML, like Gecko) Chrome/112.0.0.0 Safari/537.36 Edg/112.0.1722.39",WebKit,Edge,112.0.1722.39,Windows,10.0,null,"<div style=""font-size:60px;"">+</div>",null,fixation,,,
,,,,,image-button-response,32,212254,0.0-6.0-1.3,12,1,2023-04-13 07:43:03,1075581b3d7bed61cf7b4848055b0d0e,,"Mozilla/5.0 (Windows NT 10.0; Win64; x64) AppleWebKit/537.36 (KHTML, like Gecko) Chrome/112.0.0.0 Safari/537.36 Edg/112.0.1722.39",WebKit,Edge,112.0.1722.39,Windows,10.0,16658,img/Andrena_bicolor_44969462_15.jpg,1,response_pred,Andrena bicolor,false,Andrena flavipes
,,,,,html-keyboard-response,33,212507,0.0-6.0-0.4,12,1,2023-04-13 07:43:03,1075581b3d7bed61cf7b4848055b0d0e,,"Mozilla/5.0 (Windows NT 10.0; Win64; x64) AppleWebKit/537.36 (KHTML, like Gecko) Chrome/112.0.0.0 Safari/537.36 Edg/112.0.1722.39",WebKit,Edge,112.0.1722.39,Windows,10.0,null,"<div style=""font-size:60px;"">+</div>",null,fixation,,,
,,,,,image-button-response,34,219653,0.0-6.0-1.4,12,1,2023-04-13 07:43:03,1075581b3d7bed61cf7b4848055b0d0e,,"Mozilla/5.0 (Windows NT 10.0; Win64; x64) AppleWebKit/537.36 (KHTML, like Gecko) Chrome/112.0.0.0 Safari/537.36 Edg/112.0.1722.39",WebKit,Edge,112.0.1722.39,Windows,10.0,7142,img/Bombus_pratorum_58000679_1.jpg,4,response_pred,Bombus pratorum,true,Bombus pratorum
,,,,,html-keyboard-response,35,220410,0.0-6.0-0.5,12,1,2023-04-13 07:43:03,1075581b3d7bed61cf7b4848055b0d0e,,"Mozilla/5.0 (Windows NT 10.0; Win64; x64) AppleWebKit/537.36 (KHTML, like Gecko) Chrome/112.0.0.0 Safari/537.36 Edg/112.0.1722.39",WebKit,Edge,112.0.1722.39,Windows,10.0,null,"<div style=""font-size:60px;"">+</div>",null,fixation,,,
,,,,,image-button-response,36,224597,0.0-6.0-1.5,12,1,2023-04-13 07:43:03,1075581b3d7bed61cf7b4848055b0d0e,,"Mozilla/5.0 (Windows NT 10.0; Win64; x64) AppleWebKit/537.36 (KHTML, like Gecko) Chrome/112.0.0.0 Safari/537.36 Edg/112.0.1722.39",WebKit,Edge,112.0.1722.39,Windows,10.0,4185,img/Bombus_terrestris_72770462_2.jpg,3,response_pred,Bombus lucorum,true,Bombus lucorum
,,,,,html-keyboard-response,37,224859,0.0-6.0-0.6,12,1,2023-04-13 07:43:03,1075581b3d7bed61cf7b4848055b0d0e,,"Mozilla/5.0 (Windows NT 10.0; Win64; x64) AppleWebKit/537.36 (KHTML, like Gecko) Chrome/112.0.0.0 Safari/537.36 Edg/112.0.1722.39",WebKit,Edge,112.0.1722.39,Windows,10.0,null,"<div style=""font-size:60px;"">+</div>",null,fixation,,,
,,,,,image-button-response,38,229401,0.0-6.0-1.6,12,1,2023-04-13 07:43:03,1075581b3d7bed61cf7b4848055b0d0e,,"Mozilla/5.0 (Windows NT 10.0; Win64; x64) AppleWebKit/537.36 (KHTML, like Gecko) Chrome/112.0.0.0 Safari/537.36 Edg/112.0.1722.39",WebKit,Edge,112.0.1722.39,Windows,10.0,4538,img/Andrena_bicolor_2799379_1.jpg,0,response_pred,Andrena bicolor,true,Andrena bicolor
,,,,,html-keyboard-response,39,229904,0.0-6.0-0.7,12,1,2023-04-13 07:43:03,1075581b3d7bed61cf7b4848055b0d0e,,"Mozilla/5.0 (Windows NT 10.0; Win64; x64) AppleWebKit/537.36 (KHTML, like Gecko) Chrome/112.0.0.0 Safari/537.36 Edg/112.0.1722.39",WebKit,Edge,112.0.1722.39,Windows,10.0,null,"<div style=""font-size:60px;"">+</div>",null,fixation,,,
,,,,,image-button-response,40,255851,0.0-6.0-1.7,12,1,2023-04-13 07:43:03,1075581b3d7bed61cf7b4848055b0d0e,,"Mozilla/5.0 (Windows NT 10.0; Win64; x64) AppleWebKit/537.36 (KHTML, like Gecko) Chrome/112.0.0.0 Safari/537.36 Edg/112.0.1722.39",WebKit,Edge,112.0.1722.39,Windows,10.0,25944,img/Andrena_flavipes_77801499_2.jpg,1,response_pred,Andrena flavipes,true,Andrena flavipes
,,,,,html-keyboard-response,41,256366,0.0-6.0-0.8,12,1,2023-04-13 07:43:03,1075581b3d7bed61cf7b4848055b0d0e,,"Mozilla/5.0 (Windows NT 10.0; Win64; x64) AppleWebKit/537.36 (KHTML, like Gecko) Chrome/112.0.0.0 Safari/537.36 Edg/112.0.1722.39",WebKit,Edge,112.0.1722.39,Windows,10.0,null,"<div style=""font-size:60px;"">+</div>",null,fixation,,,
,,,,,image-button-response,42,267346,0.0-6.0-1.8,12,1,2023-04-13 07:43:03,1075581b3d7bed61cf7b4848055b0d0e,,"Mozilla/5.0 (Windows NT 10.0; Win64; x64) AppleWebKit/537.36 (KHTML, like Gecko) Chrome/112.0.0.0 Safari/537.36 Edg/112.0.1722.39",WebKit,Edge,112.0.1722.39,Windows,10.0,10977,img/Bombus_pratorum_41522167_1.jpg,4,response_pred,Bombus pratorum,true,Bombus lucorum
,,,,,html-keyboard-response,43,267853,0.0-6.0-0.9,12,1,2023-04-13 07:43:03,1075581b3d7bed61cf7b4848055b0d0e,,"Mozilla/5.0 (Windows NT 10.0; Win64; x64) AppleWebKit/537.36 (KHTML, like Gecko) Chrome/112.0.0.0 Safari/537.36 Edg/112.0.1722.39",WebKit,Edge,112.0.1722.39,Windows,10.0,null,"<div style=""font-size:60px;"">+</div>",null,fixation,,,
,,,,,image-button-response,44,273999,0.0-6.0-1.9,12,1,2023-04-13 07:43:03,1075581b3d7bed61cf7b4848055b0d0e,,"Mozilla/5.0 (Windows NT 10.0; Win64; x64) AppleWebKit/537.36 (KHTML, like Gecko) Chrome/112.0.0.0 Safari/537.36 Edg/112.0.1722.39",WebKit,Edge,112.0.1722.39,Windows,10.0,6144,img/Andrena_flavipes_70667186_1.jpg,1,response_pred,Andrena flavipes,true,Andrena flavipes
,,,,,html-button-response,45,277899,0.0-7.0,12,1,2023-04-13 07:43:03,1075581b3d7bed61cf7b4848055b0d0e,,"Mozilla/5.0 (Windows NT 10.0; Win64; x64) AppleWebKit/537.36 (KHTML, like Gecko) Chrome/112.0.0.0 Safari/537.36 Edg/112.0.1722.39",WebKit,Edge,112.0.1722.39,Windows,10.0,3899,"<p>Num. trials: 10, out of which 9 were correct.</p>
	      <p>You responded correctly on 90% of the trials.</p>
        <p>Your average response time was 9667ms.</p>
        <p>Click <strong>Continue</strong> to start the next task:</p>
        <p><strong>Task 3 (10 images): Assign again a species only with the help of the prototypes 
	    (no model prediction revealed).</strong></p>",0,,,,
,,,,,html-keyboard-response,46,278151,0.0-8.0-0.0,12,1,2023-04-13 07:43:03,1075581b3d7bed61cf7b4848055b0d0e,,"Mozilla/5.0 (Windows NT 10.0; Win64; x64) AppleWebKit/537.36 (KHTML, like Gecko) Chrome/112.0.0.0 Safari/537.36 Edg/112.0.1722.39",WebKit,Edge,112.0.1722.39,Windows,10.0,null,"<div style=""font-size:60px;"">+</div>",null,fixation,,,
,,,,,image-button-response,47,305753,0.0-8.0-1.0,12,1,2023-04-13 07:43:03,1075581b3d7bed61cf7b4848055b0d0e,,"Mozilla/5.0 (Windows NT 10.0; Win64; x64) AppleWebKit/537.36 (KHTML, like Gecko) Chrome/112.0.0.0 Safari/537.36 Edg/112.0.1722.39",WebKit,Edge,112.0.1722.39,Windows,10.0,27601,img/Andrena_flavipes_8430646_1.jpg,1,response_2,Andrena flavipes,true,
,,,,,html-keyboard-response,48,306013,0.0-8.0-0.1,12,1,2023-04-13 07:43:03,1075581b3d7bed61cf7b4848055b0d0e,,"Mozilla/5.0 (Windows NT 10.0; Win64; x64) AppleWebKit/537.36 (KHTML, like Gecko) Chrome/112.0.0.0 Safari/537.36 Edg/112.0.1722.39",WebKit,Edge,112.0.1722.39,Windows,10.0,null,"<div style=""font-size:60px;"">+</div>",null,fixation,,,
,,,,,image-button-response,49,311011,0.0-8.0-1.1,12,1,2023-04-13 07:43:03,1075581b3d7bed61cf7b4848055b0d0e,,"Mozilla/5.0 (Windows NT 10.0; Win64; x64) AppleWebKit/537.36 (KHTML, like Gecko) Chrome/112.0.0.0 Safari/537.36 Edg/112.0.1722.39",WebKit,Edge,112.0.1722.39,Windows,10.0,4995,img/Andrena_bicolor_70615494_2.jpg,0,response_2,Andrena bicolor,true,
,,,,,html-keyboard-response,50,311262,0.0-8.0-0.2,12,1,2023-04-13 07:43:03,1075581b3d7bed61cf7b4848055b0d0e,,"Mozilla/5.0 (Windows NT 10.0; Win64; x64) AppleWebKit/537.36 (KHTML, like Gecko) Chrome/112.0.0.0 Safari/537.36 Edg/112.0.1722.39",WebKit,Edge,112.0.1722.39,Windows,10.0,null,"<div style=""font-size:60px;"">+</div>",null,fixation,,,
,,,,,image-button-response,51,313647,0.0-8.0-1.2,12,1,2023-04-13 07:43:03,1075581b3d7bed61cf7b4848055b0d0e,,"Mozilla/5.0 (Windows NT 10.0; Win64; x64) AppleWebKit/537.36 (KHTML, like Gecko) Chrome/112.0.0.0 Safari/537.36 Edg/112.0.1722.39",WebKit,Edge,112.0.1722.39,Windows,10.0,2382,img/Bombus_pratorum_45583159_2.jpg,4,response_2,Bombus pratorum,true,
,,,,,html-keyboard-response,52,314149,0.0-8.0-0.3,12,1,2023-04-13 07:43:03,1075581b3d7bed61cf7b4848055b0d0e,,"Mozilla/5.0 (Windows NT 10.0; Win64; x64) AppleWebKit/537.36 (KHTML, like Gecko) Chrome/112.0.0.0 Safari/537.36 Edg/112.0.1722.39",WebKit,Edge,112.0.1722.39,Windows,10.0,null,"<div style=""font-size:60px;"">+</div>",null,fixation,,,
,,,,,image-button-response,53,327753,0.0-8.0-1.3,12,1,2023-04-13 07:43:03,1075581b3d7bed61cf7b4848055b0d0e,,"Mozilla/5.0 (Windows NT 10.0; Win64; x64) AppleWebKit/537.36 (KHTML, like Gecko) Chrome/112.0.0.0 Safari/537.36 Edg/112.0.1722.39",WebKit,Edge,112.0.1722.39,Windows,10.0,13601,img/Andrena_flavipes_41517541_3.jpg,0,response_2,Andrena flavipes,false,
,,,,,html-keyboard-response,54,328263,0.0-8.0-0.4,12,1,2023-04-13 07:43:03,1075581b3d7bed61cf7b4848055b0d0e,,"Mozilla/5.0 (Windows NT 10.0; Win64; x64) AppleWebKit/537.36 (KHTML, like Gecko) Chrome/112.0.0.0 Safari/537.36 Edg/112.0.1722.39",WebKit,Edge,112.0.1722.39,Windows,10.0,null,"<div style=""font-size:60px;"">+</div>",null,fixation,,,
,,,,,image-button-response,55,332341,0.0-8.0-1.4,12,1,2023-04-13 07:43:03,1075581b3d7bed61cf7b4848055b0d0e,,"Mozilla/5.0 (Windows NT 10.0; Win64; x64) AppleWebKit/537.36 (KHTML, like Gecko) Chrome/112.0.0.0 Safari/537.36 Edg/112.0.1722.39",WebKit,Edge,112.0.1722.39,Windows,10.0,4075,img/Bombus_terrestris_53835710_1.jpg,3,response_2,Bombus lucorum,true,
,,,,,html-keyboard-response,56,333093,0.0-8.0-0.5,12,1,2023-04-13 07:43:03,1075581b3d7bed61cf7b4848055b0d0e,,"Mozilla/5.0 (Windows NT 10.0; Win64; x64) AppleWebKit/537.36 (KHTML, like Gecko) Chrome/112.0.0.0 Safari/537.36 Edg/112.0.1722.39",WebKit,Edge,112.0.1722.39,Windows,10.0,null,"<div style=""font-size:60px;"">+</div>",null,fixation,,,
,,,,,image-button-response,57,337073,0.0-8.0-1.5,12,1,2023-04-13 07:43:03,1075581b3d7bed61cf7b4848055b0d0e,,"Mozilla/5.0 (Windows NT 10.0; Win64; x64) AppleWebKit/537.36 (KHTML, like Gecko) Chrome/112.0.0.0 Safari/537.36 Edg/112.0.1722.39",WebKit,Edge,112.0.1722.39,Windows,10.0,3978,img/Andrena_bicolor_40186737_3.jpg,1,response_2,Andrena bicolor,false,
,,,,,html-keyboard-response,58,337830,0.0-8.0-0.6,12,1,2023-04-13 07:43:03,1075581b3d7bed61cf7b4848055b0d0e,,"Mozilla/5.0 (Windows NT 10.0; Win64; x64) AppleWebKit/537.36 (KHTML, like Gecko) Chrome/112.0.0.0 Safari/537.36 Edg/112.0.1722.39",WebKit,Edge,112.0.1722.39,Windows,10.0,null,"<div style=""font-size:60px;"">+</div>",null,fixation,,,
,,,,,image-button-response,59,340037,0.0-8.0-1.6,12,1,2023-04-13 07:43:03,1075581b3d7bed61cf7b4848055b0d0e,,"Mozilla/5.0 (Windows NT 10.0; Win64; x64) AppleWebKit/537.36 (KHTML, like Gecko) Chrome/112.0.0.0 Safari/537.36 Edg/112.0.1722.39",WebKit,Edge,112.0.1722.39,Windows,10.0,2204,img/Bombus_pratorum_22806096_1.jpg,4,response_2,Bombus pratorum,true,
,,,,,html-keyboard-response,60,340546,0.0-8.0-0.7,12,1,2023-04-13 07:43:03,1075581b3d7bed61cf7b4848055b0d0e,,"Mozilla/5.0 (Windows NT 10.0; Win64; x64) AppleWebKit/537.36 (KHTML, like Gecko) Chrome/112.0.0.0 Safari/537.36 Edg/112.0.1722.39",WebKit,Edge,112.0.1722.39,Windows,10.0,null,"<div style=""font-size:60px;"">+</div>",null,fixation,,,
,,,,,image-button-response,61,344901,0.0-8.0-1.7,12,1,2023-04-13 07:43:03,1075581b3d7bed61cf7b4848055b0d0e,,"Mozilla/5.0 (Windows NT 10.0; Win64; x64) AppleWebKit/537.36 (KHTML, like Gecko) Chrome/112.0.0.0 Safari/537.36 Edg/112.0.1722.39",WebKit,Edge,112.0.1722.39,Windows,10.0,4352,img/Bombus_terrestris_55046379_1.jpg,3,response_2,Bombus lucorum,true,
,,,,,html-keyboard-response,62,345409,0.0-8.0-0.8,12,1,2023-04-13 07:43:03,1075581b3d7bed61cf7b4848055b0d0e,,"Mozilla/5.0 (Windows NT 10.0; Win64; x64) AppleWebKit/537.36 (KHTML, like Gecko) Chrome/112.0.0.0 Safari/537.36 Edg/112.0.1722.39",WebKit,Edge,112.0.1722.39,Windows,10.0,null,"<div style=""font-size:60px;"">+</div>",null,fixation,,,
,,,,,image-button-response,63,352197,0.0-8.0-1.8,12,1,2023-04-13 07:43:03,1075581b3d7bed61cf7b4848055b0d0e,,"Mozilla/5.0 (Windows NT 10.0; Win64; x64) AppleWebKit/537.36 (KHTML, like Gecko) Chrome/112.0.0.0 Safari/537.36 Edg/112.0.1722.39",WebKit,Edge,112.0.1722.39,Windows,10.0,6785,img/Andrena_flavipes_28862388_1.jpg,1,response_2,Andrena flavipes,true,
,,,,,html-keyboard-response,64,352962,0.0-8.0-0.9,12,1,2023-04-13 07:43:03,1075581b3d7bed61cf7b4848055b0d0e,,"Mozilla/5.0 (Windows NT 10.0; Win64; x64) AppleWebKit/537.36 (KHTML, like Gecko) Chrome/112.0.0.0 Safari/537.36 Edg/112.0.1722.39",WebKit,Edge,112.0.1722.39,Windows,10.0,null,"<div style=""font-size:60px;"">+</div>",null,fixation,,,
,,,,,image-button-response,65,357610,0.0-8.0-1.9,12,1,2023-04-13 07:43:03,1075581b3d7bed61cf7b4848055b0d0e,,"Mozilla/5.0 (Windows NT 10.0; Win64; x64) AppleWebKit/537.36 (KHTML, like Gecko) Chrome/112.0.0.0 Safari/537.36 Edg/112.0.1722.39",WebKit,Edge,112.0.1722.39,Windows,10.0,4645,img/Andrena_bicolor_39411385_1.jpg,0,response_2,Andrena bicolor,true,
,,,,,html-button-response,66,359039,0.0-9.0,12,1,2023-04-13 07:43:03,1075581b3d7bed61cf7b4848055b0d0e,,"Mozilla/5.0 (Windows NT 10.0; Win64; x64) AppleWebKit/537.36 (KHTML, like Gecko) Chrome/112.0.0.0 Safari/537.36 Edg/112.0.1722.39",WebKit,Edge,112.0.1722.39,Windows,10.0,1427,"<p>Num. trials: 10, out of which 8 were correct.</p>
    	      <p>You responded correctly on 80% of the trials.</p>
            <p>Your average response time was 7462ms.</p>
            <p>Click <strong>Continue</strong> to end the experiment.</p>",0,,,,
,,,,,html-button-response,67,360417,0.0-10.0,12,1,2023-04-13 07:43:03,1075581b3d7bed61cf7b4848055b0d0e,,"Mozilla/5.0 (Windows NT 10.0; Win64; x64) AppleWebKit/537.36 (KHTML, like Gecko) Chrome/112.0.0.0 Safari/537.36 Edg/112.0.1722.39",WebKit,Edge,112.0.1722.39,Windows,10.0,1376,<strong>Thank you for participating! Have a nice day :^)</strong>,0,,,,
true,false,[],[],[],preload,0,1179,0.0-0.0,144,1,2023-05-03 07:10:53,01d174b5381169e1ff9a157e8bbbf5c7,,"Mozilla/5.0 (Windows NT 10.0; Win64; x64) AppleWebKit/537.36 (KHTML, like Gecko) Chrome/112.0.0.0 Safari/537.36",WebKit,Chrome,112.0.0.0,Windows,10.0,,,,,,,,,
,,,,,html-button-response,1,38238,0.0-1.0,144,1,2023-05-03 07:10:53,01d174b5381169e1ff9a157e8bbbf5c7,,"Mozilla/5.0 (Windows NT 10.0; Win64; x64) AppleWebKit/537.36 (KHTML, like Gecko) Chrome/112.0.0.0 Safari/537.36",WebKit,Chrome,112.0.0.0,Windows,10.0,37057,"<strong>Welcome to the <i>beexplainable</i> experiment!</strong>
               <p><i>Note</i>: Please only do this experiment <strong>once</strong>.</p>
               <p>We also recommend you use a device with a wider screen (i.e. laptop, tablet) <strong>not</strong> your phone.",0,,,,,,
,,,,,html-button-response,2,120117,0.0-2.0,144,1,2023-05-03 07:10:53,01d174b5381169e1ff9a157e8bbbf5c7,,"Mozilla/5.0 (Windows NT 10.0; Win64; x64) AppleWebKit/537.36 (KHTML, like Gecko) Chrome/112.0.0.0 Safari/537.36",WebKit,Chrome,112.0.0.0,Windows,10.0,81878,"	  
      <p>In this experiment, you will be shown 30 images of 5 
	wild bee species and be asked to solve three tasks.</p><p><strong>Task 1 (10 images)</strong>: Assign a species to the
	test image based on the prototypes shown on the right half of the page.</p>
      <p><strong>Task 2 (10 images)</strong>: Assign a species while also knowing our model's prediction and seeing an explanation for it (marked red in title).</p>
	    <p><strong>Task 3 (10 images)</strong>: Assign again a species only with the help of the prototypes 
	    (no model prediction revealed).</p><p>After these tasks, you will be asked to rate 4 statements regarding your experience 
	throughout the experiment.</p><p><i>Note</i>: From this moment on, please avoid resizing your browser window, as this may cause 
	    the zooming tool to malfunction.</p>
    ",0,,,,,,
,,,,,html-button-response,3,254053,0.0-3.0,144,1,2023-05-03 07:10:53,01d174b5381169e1ff9a157e8bbbf5c7,,"Mozilla/5.0 (Windows NT 10.0; Win64; x64) AppleWebKit/537.36 (KHTML, like Gecko) Chrome/112.0.0.0 Safari/537.36",WebKit,Chrome,112.0.0.0,Windows,10.0,133934,"
  <div id=""div_row"">
      <div class=""row"">
          <div class=""column"">
              <div class=""card"">
                  <img src=""img/Andrena_bicolor_proto.jpg"" alt=""bico"">
                  <h5>Andrena bicolor</h5>
              </div>
          </div>

          <div class=""column"">
              <div class=""card"">
                  <img src=""img/Andrena_flavipes_proto.jpg"" alt=""flavi"">
                  <h5>Andrena flavipes</h5>
              </div>
          </div>

          <div class=""column"">
              <div class=""card"">
                  <img src=""img/Andrena_fulva_proto.jpg"" alt=""fulva"">
                  <h5>Andrena fulva</h5>
              </div>
          </div>
      </div>

      <div class=""row"">
          <div class=""column"">
              <div class=""card"">
                  <img src=""img/Bombus_lucorum_proto.jpg"" alt=""luco"">
                  <h5>Bombus lucorum</h5>
              </div>
          </div>

          <div class=""column"">
              <div class=""card"">
                  <img src=""img/Bombus_pratorum_proto.jpg"" alt=""prato"">
                  <h5>Bombus pratorum</h5>
              </div>
          </div>
          
          <div class=""column"">
              
          </div>
      </div>
  </div><div id=""just_protos_prompt_div""><p>Before starting the experiment, take your time and look at the 5 samples on the right.
	Each of them was chosen as a prototype of their species. Throughout the whole experiment you will be shown these representative samples 
	next to the test samples to help you decide which species the test sample belongs to. 
	<p>Whenever you are ready, click <strong>Continue</strong> to start the first task:</p>
	<p><strong>Task 1 (10 images): Assign a species to the
	test image based on the prototypes.</strong></p></div>",0,,,,,,
,,,,,html-keyboard-response,4,255814,0.0-4.0-0.0,144,1,2023-05-03 07:10:53,01d174b5381169e1ff9a157e8bbbf5c7,,"Mozilla/5.0 (Windows NT 10.0; Win64; x64) AppleWebKit/537.36 (KHTML, like Gecko) Chrome/112.0.0.0 Safari/537.36",WebKit,Chrome,112.0.0.0,Windows,10.0,null,"<div style=""font-size:60px;"">+</div>",null,fixation,,,,,
,,,,,image-button-response,5,294406,0.0-4.0-1.0,144,1,2023-05-03 07:10:53,01d174b5381169e1ff9a157e8bbbf5c7,,"Mozilla/5.0 (Windows NT 10.0; Win64; x64) AppleWebKit/537.36 (KHTML, like Gecko) Chrome/112.0.0.0 Safari/537.36",WebKit,Chrome,112.0.0.0,Windows,10.0,38586,img/Andrena_fulva_24609371_2.jpg,2,response_1,Andrena fulva,true,,,
,,,,,html-keyboard-response,6,294908,0.0-4.0-0.1,144,1,2023-05-03 07:10:53,01d174b5381169e1ff9a157e8bbbf5c7,,"Mozilla/5.0 (Windows NT 10.0; Win64; x64) AppleWebKit/537.36 (KHTML, like Gecko) Chrome/112.0.0.0 Safari/537.36",WebKit,Chrome,112.0.0.0,Windows,10.0,null,"<div style=""font-size:60px;"">+</div>",null,fixation,,,,,
,,,,,image-button-response,7,335038,0.0-4.0-1.1,144,1,2023-05-03 07:10:53,01d174b5381169e1ff9a157e8bbbf5c7,,"Mozilla/5.0 (Windows NT 10.0; Win64; x64) AppleWebKit/537.36 (KHTML, like Gecko) Chrome/112.0.0.0 Safari/537.36",WebKit,Chrome,112.0.0.0,Windows,10.0,40127,img/Bombus_terrestris_53737090_1.jpg,4,response_1,Bombus lucorum,false,,,
,,,,,html-keyboard-response,8,335299,0.0-4.0-0.2,144,1,2023-05-03 07:10:53,01d174b5381169e1ff9a157e8bbbf5c7,,"Mozilla/5.0 (Windows NT 10.0; Win64; x64) AppleWebKit/537.36 (KHTML, like Gecko) Chrome/112.0.0.0 Safari/537.36",WebKit,Chrome,112.0.0.0,Windows,10.0,null,"<div style=""font-size:60px;"">+</div>",null,fixation,,,,,
,,,,,image-button-response,9,356709,0.0-4.0-1.2,144,1,2023-05-03 07:10:53,01d174b5381169e1ff9a157e8bbbf5c7,,"Mozilla/5.0 (Windows NT 10.0; Win64; x64) AppleWebKit/537.36 (KHTML, like Gecko) Chrome/112.0.0.0 Safari/537.36",WebKit,Chrome,112.0.0.0,Windows,10.0,21408,img/Bombus_terrestris_53835710_1.jpg,4,response_1,Bombus lucorum,false,,,
,,,,,html-keyboard-response,10,357213,0.0-4.0-0.3,144,1,2023-05-03 07:10:53,01d174b5381169e1ff9a157e8bbbf5c7,,"Mozilla/5.0 (Windows NT 10.0; Win64; x64) AppleWebKit/537.36 (KHTML, like Gecko) Chrome/112.0.0.0 Safari/537.36",WebKit,Chrome,112.0.0.0,Windows,10.0,null,"<div style=""font-size:60px;"">+</div>",null,fixation,,,,,
,,,,,image-button-response,11,416788,0.0-4.0-1.3,144,1,2023-05-03 07:10:53,01d174b5381169e1ff9a157e8bbbf5c7,,"Mozilla/5.0 (Windows NT 10.0; Win64; x64) AppleWebKit/537.36 (KHTML, like Gecko) Chrome/112.0.0.0 Safari/537.36",WebKit,Chrome,112.0.0.0,Windows,10.0,59573,img/Bombus_pratorum_20908187_1.jpg,3,response_1,Bombus pratorum,false,,,
,,,,,html-keyboard-response,12,417040,0.0-4.0-0.4,144,1,2023-05-03 07:10:53,01d174b5381169e1ff9a157e8bbbf5c7,,"Mozilla/5.0 (Windows NT 10.0; Win64; x64) AppleWebKit/537.36 (KHTML, like Gecko) Chrome/112.0.0.0 Safari/537.36",WebKit,Chrome,112.0.0.0,Windows,10.0,null,"<div style=""font-size:60px;"">+</div>",null,fixation,,,,,
,,,,,image-button-response,13,419556,0.0-4.0-1.4,144,1,2023-05-03 07:10:53,01d174b5381169e1ff9a157e8bbbf5c7,,"Mozilla/5.0 (Windows NT 10.0; Win64; x64) AppleWebKit/537.36 (KHTML, like Gecko) Chrome/112.0.0.0 Safari/537.36",WebKit,Chrome,112.0.0.0,Windows,10.0,2513,img/Andrena_flavipes_42347630_1.jpg,1,response_1,Andrena flavipes,true,,,
,,,,,html-keyboard-response,14,420057,0.0-4.0-0.5,144,1,2023-05-03 07:10:53,01d174b5381169e1ff9a157e8bbbf5c7,,"Mozilla/5.0 (Windows NT 10.0; Win64; x64) AppleWebKit/537.36 (KHTML, like Gecko) Chrome/112.0.0.0 Safari/537.36",WebKit,Chrome,112.0.0.0,Windows,10.0,null,"<div style=""font-size:60px;"">+</div>",null,fixation,,,,,
,,,,,image-button-response,15,430524,0.0-4.0-1.5,144,1,2023-05-03 07:10:53,01d174b5381169e1ff9a157e8bbbf5c7,,"Mozilla/5.0 (Windows NT 10.0; Win64; x64) AppleWebKit/537.36 (KHTML, like Gecko) Chrome/112.0.0.0 Safari/537.36",WebKit,Chrome,112.0.0.0,Windows,10.0,10464,img/Andrena_fulva_43172780_1.jpg,0,response_1,Andrena fulva,false,,,
,,,,,html-keyboard-response,16,430776,0.0-4.0-0.6,144,1,2023-05-03 07:10:53,01d174b5381169e1ff9a157e8bbbf5c7,,"Mozilla/5.0 (Windows NT 10.0; Win64; x64) AppleWebKit/537.36 (KHTML, like Gecko) Chrome/112.0.0.0 Safari/537.36",WebKit,Chrome,112.0.0.0,Windows,10.0,null,"<div style=""font-size:60px;"">+</div>",null,fixation,,,,,
,,,,,image-button-response,17,448413,0.0-4.0-1.6,144,1,2023-05-03 07:10:53,01d174b5381169e1ff9a157e8bbbf5c7,,"Mozilla/5.0 (Windows NT 10.0; Win64; x64) AppleWebKit/537.36 (KHTML, like Gecko) Chrome/112.0.0.0 Safari/537.36",WebKit,Chrome,112.0.0.0,Windows,10.0,17634,img/Andrena_bicolor_70615494_2.jpg,1,response_1,Andrena bicolor,false,,,
,,,,,html-keyboard-response,18,448665,0.0-4.0-0.7,144,1,2023-05-03 07:10:53,01d174b5381169e1ff9a157e8bbbf5c7,,"Mozilla/5.0 (Windows NT 10.0; Win64; x64) AppleWebKit/537.36 (KHTML, like Gecko) Chrome/112.0.0.0 Safari/537.36",WebKit,Chrome,112.0.0.0,Windows,10.0,null,"<div style=""font-size:60px;"">+</div>",null,fixation,,,,,
,,,,,image-button-response,19,463917,0.0-4.0-1.7,144,1,2023-05-03 07:10:53,01d174b5381169e1ff9a157e8bbbf5c7,,"Mozilla/5.0 (Windows NT 10.0; Win64; x64) AppleWebKit/537.36 (KHTML, like Gecko) Chrome/112.0.0.0 Safari/537.36",WebKit,Chrome,112.0.0.0,Windows,10.0,15250,img/Andrena_flavipes_8430646_1.jpg,3,response_1,Andrena flavipes,false,,,
,,,,,html-keyboard-response,20,464419,0.0-4.0-0.8,144,1,2023-05-03 07:10:53,01d174b5381169e1ff9a157e8bbbf5c7,,"Mozilla/5.0 (Windows NT 10.0; Win64; x64) AppleWebKit/537.36 (KHTML, like Gecko) Chrome/112.0.0.0 Safari/537.36",WebKit,Chrome,112.0.0.0,Windows,10.0,null,"<div style=""font-size:60px;"">+</div>",null,fixation,,,,,
,,,,,image-button-response,21,469565,0.0-4.0-1.8,144,1,2023-05-03 07:10:53,01d174b5381169e1ff9a157e8bbbf5c7,,"Mozilla/5.0 (Windows NT 10.0; Win64; x64) AppleWebKit/537.36 (KHTML, like Gecko) Chrome/112.0.0.0 Safari/537.36",WebKit,Chrome,112.0.0.0,Windows,10.0,5144,img/Andrena_flavipes_33657115_1.jpg,1,response_1,Andrena flavipes,true,,,
,,,,,html-keyboard-response,22,470317,0.0-4.0-0.9,144,1,2023-05-03 07:10:53,01d174b5381169e1ff9a157e8bbbf5c7,,"Mozilla/5.0 (Windows NT 10.0; Win64; x64) AppleWebKit/537.36 (KHTML, like Gecko) Chrome/112.0.0.0 Safari/537.36",WebKit,Chrome,112.0.0.0,Windows,10.0,null,"<div style=""font-size:60px;"">+</div>",null,fixation,,,,,
,,,,,image-button-response,23,508269,0.0-4.0-1.9,144,1,2023-05-03 07:10:53,01d174b5381169e1ff9a157e8bbbf5c7,,"Mozilla/5.0 (Windows NT 10.0; Win64; x64) AppleWebKit/537.36 (KHTML, like Gecko) Chrome/112.0.0.0 Safari/537.36",WebKit,Chrome,112.0.0.0,Windows,10.0,37950,img/Andrena_flavipes_40832925_3.jpg,4,response_1,Andrena flavipes,false,,,
,,,,,html-button-response,24,606051,0.0-5.0,144,1,2023-05-03 07:10:53,01d174b5381169e1ff9a157e8bbbf5c7,,"Mozilla/5.0 (Windows NT 10.0; Win64; x64) AppleWebKit/537.36 (KHTML, like Gecko) Chrome/112.0.0.0 Safari/537.36",WebKit,Chrome,112.0.0.0,Windows,10.0,97780,"<p>Num. trials: 10, out of which 3 were correct.</p>
	      <p>You responded correctly on 30% of the trials.</p>
        <p>Your average response time was 24865ms.</p>
        <p>Click <strong>Continue</strong> to start the next task:</p>
        <p><strong>Task 2 (10 images): Assign a species while also knowing our model's prediction and seeing an explanation for it (marked red in title).</strong></p>",0,,,,,,
,,,,,html-keyboard-response,25,606302,0.0-6.0-0.0,144,1,2023-05-03 07:10:53,01d174b5381169e1ff9a157e8bbbf5c7,,"Mozilla/5.0 (Windows NT 10.0; Win64; x64) AppleWebKit/537.36 (KHTML, like Gecko) Chrome/112.0.0.0 Safari/537.36",WebKit,Chrome,112.0.0.0,Windows,10.0,null,"<div style=""font-size:60px;"">+</div>",null,fixation,,,,,
,,,,,image-button-response,26,836045,0.0-6.0-1.0,144,1,2023-05-03 07:10:53,01d174b5381169e1ff9a157e8bbbf5c7,,"Mozilla/5.0 (Windows NT 10.0; Win64; x64) AppleWebKit/537.36 (KHTML, like Gecko) Chrome/112.0.0.0 Safari/537.36",WebKit,Chrome,112.0.0.0,Windows,10.0,229738,img/Andrena_fulva_76966123_1.jpg,2,response_pred,Andrena fulva,true,Andrena bicolor,YES YES NO,
,,,,,html-keyboard-response,27,836804,0.0-6.0-0.1,144,1,2023-05-03 07:10:53,01d174b5381169e1ff9a157e8bbbf5c7,,"Mozilla/5.0 (Windows NT 10.0; Win64; x64) AppleWebKit/537.36 (KHTML, like Gecko) Chrome/112.0.0.0 Safari/537.36",WebKit,Chrome,112.0.0.0,Windows,10.0,null,"<div style=""font-size:60px;"">+</div>",null,fixation,,,,,
,,,,,image-button-response,28,862685,0.0-6.0-1.1,144,1,2023-05-03 07:10:53,01d174b5381169e1ff9a157e8bbbf5c7,,"Mozilla/5.0 (Windows NT 10.0; Win64; x64) AppleWebKit/537.36 (KHTML, like Gecko) Chrome/112.0.0.0 Safari/537.36",WebKit,Chrome,112.0.0.0,Windows,10.0,25877,img/Bombus_pratorum_42078196_1.jpg,4,response_pred,Bombus pratorum,true,Bombus pratorum,NO YES YES,
,,,,,html-keyboard-response,29,863437,0.0-6.0-0.2,144,1,2023-05-03 07:10:53,01d174b5381169e1ff9a157e8bbbf5c7,,"Mozilla/5.0 (Windows NT 10.0; Win64; x64) AppleWebKit/537.36 (KHTML, like Gecko) Chrome/112.0.0.0 Safari/537.36",WebKit,Chrome,112.0.0.0,Windows,10.0,null,"<div style=""font-size:60px;"">+</div>",null,fixation,,,,,
,,,,,image-button-response,30,881820,0.0-6.0-1.2,144,1,2023-05-03 07:10:53,01d174b5381169e1ff9a157e8bbbf5c7,,"Mozilla/5.0 (Windows NT 10.0; Win64; x64) AppleWebKit/537.36 (KHTML, like Gecko) Chrome/112.0.0.0 Safari/537.36",WebKit,Chrome,112.0.0.0,Windows,10.0,18380,img/Andrena_fulva_78200707_1.jpg,2,response_pred,Andrena fulva,true,Andrena fulva,NO YES NO,
,,,,,html-keyboard-response,31,882572,0.0-6.0-0.3,144,1,2023-05-03 07:10:53,01d174b5381169e1ff9a157e8bbbf5c7,,"Mozilla/5.0 (Windows NT 10.0; Win64; x64) AppleWebKit/537.36 (KHTML, like Gecko) Chrome/112.0.0.0 Safari/537.36",WebKit,Chrome,112.0.0.0,Windows,10.0,null,"<div style=""font-size:60px;"">+</div>",null,fixation,,,,,
,,,,,image-button-response,32,894421,0.0-6.0-1.3,144,1,2023-05-03 07:10:53,01d174b5381169e1ff9a157e8bbbf5c7,,"Mozilla/5.0 (Windows NT 10.0; Win64; x64) AppleWebKit/537.36 (KHTML, like Gecko) Chrome/112.0.0.0 Safari/537.36",WebKit,Chrome,112.0.0.0,Windows,10.0,11846,img/Andrena_fulva_77615356_2.jpg,2,response_pred,Andrena fulva,true,Andrena fulva,NO YES NO,
,,,,,html-keyboard-response,33,894679,0.0-6.0-0.4,144,1,2023-05-03 07:10:53,01d174b5381169e1ff9a157e8bbbf5c7,,"Mozilla/5.0 (Windows NT 10.0; Win64; x64) AppleWebKit/537.36 (KHTML, like Gecko) Chrome/112.0.0.0 Safari/537.36",WebKit,Chrome,112.0.0.0,Windows,10.0,null,"<div style=""font-size:60px;"">+</div>",null,fixation,,,,,
,,,,,image-button-response,34,908429,0.0-6.0-1.4,144,1,2023-05-03 07:10:53,01d174b5381169e1ff9a157e8bbbf5c7,,"Mozilla/5.0 (Windows NT 10.0; Win64; x64) AppleWebKit/537.36 (KHTML, like Gecko) Chrome/112.0.0.0 Safari/537.36",WebKit,Chrome,112.0.0.0,Windows,10.0,13747,img/Andrena_bicolor_2799379_1.jpg,1,response_pred,Andrena bicolor,false,Andrena bicolor,YES YES NO,
,,,,,html-keyboard-response,35,908681,0.0-6.0-0.5,144,1,2023-05-03 07:10:53,01d174b5381169e1ff9a157e8bbbf5c7,,"Mozilla/5.0 (Windows NT 10.0; Win64; x64) AppleWebKit/537.36 (KHTML, like Gecko) Chrome/112.0.0.0 Safari/537.36",WebKit,Chrome,112.0.0.0,Windows,10.0,null,"<div style=""font-size:60px;"">+</div>",null,fixation,,,,,
,,,,,image-button-response,36,919364,0.0-6.0-1.5,144,1,2023-05-03 07:10:53,01d174b5381169e1ff9a157e8bbbf5c7,,"Mozilla/5.0 (Windows NT 10.0; Win64; x64) AppleWebKit/537.36 (KHTML, like Gecko) Chrome/112.0.0.0 Safari/537.36",WebKit,Chrome,112.0.0.0,Windows,10.0,10681,img/Andrena_flavipes_70667186_1.jpg,1,response_pred,Andrena flavipes,true,Andrena flavipes,YES NO NO,
,,,,,html-keyboard-response,37,919867,0.0-6.0-0.6,144,1,2023-05-03 07:10:53,01d174b5381169e1ff9a157e8bbbf5c7,,"Mozilla/5.0 (Windows NT 10.0; Win64; x64) AppleWebKit/537.36 (KHTML, like Gecko) Chrome/112.0.0.0 Safari/537.36",WebKit,Chrome,112.0.0.0,Windows,10.0,null,"<div style=""font-size:60px;"">+</div>",null,fixation,,,,,
,,,,,image-button-response,38,946293,0.0-6.0-1.6,144,1,2023-05-03 07:10:53,01d174b5381169e1ff9a157e8bbbf5c7,,"Mozilla/5.0 (Windows NT 10.0; Win64; x64) AppleWebKit/537.36 (KHTML, like Gecko) Chrome/112.0.0.0 Safari/537.36",WebKit,Chrome,112.0.0.0,Windows,10.0,26422,img/Bombus_terrestris_73531362_1.jpg,3,response_pred,Bombus lucorum,true,Bombus lucorum,NO NO YES,
,,,,,html-keyboard-response,39,947044,0.0-6.0-0.7,144,1,2023-05-03 07:10:53,01d174b5381169e1ff9a157e8bbbf5c7,,"Mozilla/5.0 (Windows NT 10.0; Win64; x64) AppleWebKit/537.36 (KHTML, like Gecko) Chrome/112.0.0.0 Safari/537.36",WebKit,Chrome,112.0.0.0,Windows,10.0,null,"<div style=""font-size:60px;"">+</div>",null,fixation,,,,,
,,,,,image-button-response,40,956780,0.0-6.0-1.7,144,1,2023-05-03 07:10:53,01d174b5381169e1ff9a157e8bbbf5c7,,"Mozilla/5.0 (Windows NT 10.0; Win64; x64) AppleWebKit/537.36 (KHTML, like Gecko) Chrome/112.0.0.0 Safari/537.36",WebKit,Chrome,112.0.0.0,Windows,10.0,9733,img/Bombus_terrestris_72770462_2.jpg,3,response_pred,Bombus lucorum,true,Bombus lucorum,NO NO YES,
,,,,,html-keyboard-response,41,957532,0.0-6.0-0.8,144,1,2023-05-03 07:10:53,01d174b5381169e1ff9a157e8bbbf5c7,,"Mozilla/5.0 (Windows NT 10.0; Win64; x64) AppleWebKit/537.36 (KHTML, like Gecko) Chrome/112.0.0.0 Safari/537.36",WebKit,Chrome,112.0.0.0,Windows,10.0,null,"<div style=""font-size:60px;"">+</div>",null,fixation,,,,,
,,,,,image-button-response,42,973548,0.0-6.0-1.8,144,1,2023-05-03 07:10:53,01d174b5381169e1ff9a157e8bbbf5c7,,"Mozilla/5.0 (Windows NT 10.0; Win64; x64) AppleWebKit/537.36 (KHTML, like Gecko) Chrome/112.0.0.0 Safari/537.36",WebKit,Chrome,112.0.0.0,Windows,10.0,16013,img/Andrena_bicolor_44969462_15.jpg,4,response_pred,Andrena bicolor,false,Andrena flavipes,YES NO NO,
,,,,,html-keyboard-response,43,973800,0.0-6.0-0.9,144,1,2023-05-03 07:10:53,01d174b5381169e1ff9a157e8bbbf5c7,,"Mozilla/5.0 (Windows NT 10.0; Win64; x64) AppleWebKit/537.36 (KHTML, like Gecko) Chrome/112.0.0.0 Safari/537.36",WebKit,Chrome,112.0.0.0,Windows,10.0,null,"<div style=""font-size:60px;"">+</div>",null,fixation,,,,,
,,,,,image-button-response,44,978452,0.0-6.0-1.9,144,1,2023-05-03 07:10:53,01d174b5381169e1ff9a157e8bbbf5c7,,"Mozilla/5.0 (Windows NT 10.0; Win64; x64) AppleWebKit/537.36 (KHTML, like Gecko) Chrome/112.0.0.0 Safari/537.36",WebKit,Chrome,112.0.0.0,Windows,10.0,4649,img/Bombus_terrestris_72551957_1.jpg,3,response_pred,Bombus lucorum,true,Bombus lucorum,NO NO YES,
,,,,,html-button-response,45,989228,0.0-7.0,144,1,2023-05-03 07:10:53,01d174b5381169e1ff9a157e8bbbf5c7,,"Mozilla/5.0 (Windows NT 10.0; Win64; x64) AppleWebKit/537.36 (KHTML, like Gecko) Chrome/112.0.0.0 Safari/537.36",WebKit,Chrome,112.0.0.0,Windows,10.0,10774,"<p>Num. trials: 10, out of which 8 were correct.</p>
	      <p>You responded correctly on 80% of the trials.</p>
        <p>Your average response time was 36709ms.</p>
        <p>Click <strong>Continue</strong> to start the next task:</p>
        <p><strong>Task 3 (10 images): Assign again a species only with the help of the prototypes 
	    (no model prediction revealed).</strong></p>",0,,,,,,
,,,,,html-keyboard-response,46,989740,0.0-8.0-0.0,144,1,2023-05-03 07:10:53,01d174b5381169e1ff9a157e8bbbf5c7,,"Mozilla/5.0 (Windows NT 10.0; Win64; x64) AppleWebKit/537.36 (KHTML, like Gecko) Chrome/112.0.0.0 Safari/537.36",WebKit,Chrome,112.0.0.0,Windows,10.0,null,"<div style=""font-size:60px;"">+</div>",null,fixation,,,,,
,,,,,image-button-response,47,1028788,0.0-8.0-1.0,144,1,2023-05-03 07:10:53,01d174b5381169e1ff9a157e8bbbf5c7,,"Mozilla/5.0 (Windows NT 10.0; Win64; x64) AppleWebKit/537.36 (KHTML, like Gecko) Chrome/112.0.0.0 Safari/537.36",WebKit,Chrome,112.0.0.0,Windows,10.0,39045,img/Andrena_bicolor_40186737_3.jpg,0,response_2,Andrena bicolor,true,,,
,,,,,html-keyboard-response,48,1029041,0.0-8.0-0.1,144,1,2023-05-03 07:10:53,01d174b5381169e1ff9a157e8bbbf5c7,,"Mozilla/5.0 (Windows NT 10.0; Win64; x64) AppleWebKit/537.36 (KHTML, like Gecko) Chrome/112.0.0.0 Safari/537.36",WebKit,Chrome,112.0.0.0,Windows,10.0,null,"<div style=""font-size:60px;"">+</div>",null,fixation,,,,,
,,,,,image-button-response,49,1033357,0.0-8.0-1.1,144,1,2023-05-03 07:10:53,01d174b5381169e1ff9a157e8bbbf5c7,,"Mozilla/5.0 (Windows NT 10.0; Win64; x64) AppleWebKit/537.36 (KHTML, like Gecko) Chrome/112.0.0.0 Safari/537.36",WebKit,Chrome,112.0.0.0,Windows,10.0,4313,img/Bombus_terrestris_55141300_1.jpg,3,response_2,Bombus lucorum,true,,,
,,,,,html-keyboard-response,50,1033866,0.0-8.0-0.2,144,1,2023-05-03 07:10:53,01d174b5381169e1ff9a157e8bbbf5c7,,"Mozilla/5.0 (Windows NT 10.0; Win64; x64) AppleWebKit/537.36 (KHTML, like Gecko) Chrome/112.0.0.0 Safari/537.36",WebKit,Chrome,112.0.0.0,Windows,10.0,null,"<div style=""font-size:60px;"">+</div>",null,fixation,,,,,
,,,,,image-button-response,51,1072555,0.0-8.0-1.2,144,1,2023-05-03 07:10:53,01d174b5381169e1ff9a157e8bbbf5c7,,"Mozilla/5.0 (Windows NT 10.0; Win64; x64) AppleWebKit/537.36 (KHTML, like Gecko) Chrome/112.0.0.0 Safari/537.36",WebKit,Chrome,112.0.0.0,Windows,10.0,38687,img/Andrena_bicolor_70744142_2.jpg,4,response_2,Andrena bicolor,false,,,
,,,,,html-keyboard-response,52,1073058,0.0-8.0-0.3,144,1,2023-05-03 07:10:53,01d174b5381169e1ff9a157e8bbbf5c7,,"Mozilla/5.0 (Windows NT 10.0; Win64; x64) AppleWebKit/537.36 (KHTML, like Gecko) Chrome/112.0.0.0 Safari/537.36",WebKit,Chrome,112.0.0.0,Windows,10.0,null,"<div style=""font-size:60px;"">+</div>",null,fixation,,,,,
,,,,,image-button-response,53,1076932,0.0-8.0-1.3,144,1,2023-05-03 07:10:53,01d174b5381169e1ff9a157e8bbbf5c7,,"Mozilla/5.0 (Windows NT 10.0; Win64; x64) AppleWebKit/537.36 (KHTML, like Gecko) Chrome/112.0.0.0 Safari/537.36",WebKit,Chrome,112.0.0.0,Windows,10.0,3870,img/Bombus_terrestris_48056955_1.jpg,3,response_2,Bombus lucorum,true,,,
,,,,,html-keyboard-response,54,1077685,0.0-8.0-0.4,144,1,2023-05-03 07:10:53,01d174b5381169e1ff9a157e8bbbf5c7,,"Mozilla/5.0 (Windows NT 10.0; Win64; x64) AppleWebKit/537.36 (KHTML, like Gecko) Chrome/112.0.0.0 Safari/537.36",WebKit,Chrome,112.0.0.0,Windows,10.0,null,"<div style=""font-size:60px;"">+</div>",null,fixation,,,,,
,,,,,image-button-response,55,1089708,0.0-8.0-1.4,144,1,2023-05-03 07:10:53,01d174b5381169e1ff9a157e8bbbf5c7,,"Mozilla/5.0 (Windows NT 10.0; Win64; x64) AppleWebKit/537.36 (KHTML, like Gecko) Chrome/112.0.0.0 Safari/537.36",WebKit,Chrome,112.0.0.0,Windows,10.0,12020,img/Bombus_pratorum_27515055_2.jpg,4,response_2,Bombus pratorum,true,,,
,,,,,html-keyboard-response,56,1090209,0.0-8.0-0.5,144,1,2023-05-03 07:10:53,01d174b5381169e1ff9a157e8bbbf5c7,,"Mozilla/5.0 (Windows NT 10.0; Win64; x64) AppleWebKit/537.36 (KHTML, like Gecko) Chrome/112.0.0.0 Safari/537.36",WebKit,Chrome,112.0.0.0,Windows,10.0,null,"<div style=""font-size:60px;"">+</div>",null,fixation,,,,,
,,,,,image-button-response,57,1103700,0.0-8.0-1.5,144,1,2023-05-03 07:10:53,01d174b5381169e1ff9a157e8bbbf5c7,,"Mozilla/5.0 (Windows NT 10.0; Win64; x64) AppleWebKit/537.36 (KHTML, like Gecko) Chrome/112.0.0.0 Safari/537.36",WebKit,Chrome,112.0.0.0,Windows,10.0,13487,img/Andrena_bicolor_70513296_3.jpg,0,response_2,Andrena bicolor,true,,,
,,,,,html-keyboard-response,58,1103951,0.0-8.0-0.6,144,1,2023-05-03 07:10:53,01d174b5381169e1ff9a157e8bbbf5c7,,"Mozilla/5.0 (Windows NT 10.0; Win64; x64) AppleWebKit/537.36 (KHTML, like Gecko) Chrome/112.0.0.0 Safari/537.36",WebKit,Chrome,112.0.0.0,Windows,10.0,null,"<div style=""font-size:60px;"">+</div>",null,fixation,,,,,
,,,,,image-button-response,59,1107972,0.0-8.0-1.6,144,1,2023-05-03 07:10:53,01d174b5381169e1ff9a157e8bbbf5c7,,"Mozilla/5.0 (Windows NT 10.0; Win64; x64) AppleWebKit/537.36 (KHTML, like Gecko) Chrome/112.0.0.0 Safari/537.36",WebKit,Chrome,112.0.0.0,Windows,10.0,4017,img/Bombus_pratorum_22806096_1.jpg,2,response_2,Bombus pratorum,false,,,
,,,,,html-keyboard-response,60,1108224,0.0-8.0-0.7,144,1,2023-05-03 07:10:53,01d174b5381169e1ff9a157e8bbbf5c7,,"Mozilla/5.0 (Windows NT 10.0; Win64; x64) AppleWebKit/537.36 (KHTML, like Gecko) Chrome/112.0.0.0 Safari/537.36",WebKit,Chrome,112.0.0.0,Windows,10.0,null,"<div style=""font-size:60px;"">+</div>",null,fixation,,,,,
,,,,,image-button-response,61,1117492,0.0-8.0-1.7,144,1,2023-05-03 07:10:53,01d174b5381169e1ff9a157e8bbbf5c7,,"Mozilla/5.0 (Windows NT 10.0; Win64; x64) AppleWebKit/537.36 (KHTML, like Gecko) Chrome/112.0.0.0 Safari/537.36",WebKit,Chrome,112.0.0.0,Windows,10.0,9265,img/Bombus_pratorum_26670234_1.jpg,2,response_2,Bombus pratorum,false,,,
,,,,,html-keyboard-response,62,1117744,0.0-8.0-0.8,144,1,2023-05-03 07:10:53,01d174b5381169e1ff9a157e8bbbf5c7,,"Mozilla/5.0 (Windows NT 10.0; Win64; x64) AppleWebKit/537.36 (KHTML, like Gecko) Chrome/112.0.0.0 Safari/537.36",WebKit,Chrome,112.0.0.0,Windows,10.0,null,"<div style=""font-size:60px;"">+</div>",null,fixation,,,,,
,,,,,image-button-response,63,1128859,0.0-8.0-1.8,144,1,2023-05-03 07:10:53,01d174b5381169e1ff9a157e8bbbf5c7,,"Mozilla/5.0 (Windows NT 10.0; Win64; x64) AppleWebKit/537.36 (KHTML, like Gecko) Chrome/112.0.0.0 Safari/537.36",WebKit,Chrome,112.0.0.0,Windows,10.0,11112,img/Andrena_fulva_21366312_1.jpg,2,response_2,Andrena fulva,true,,,
,,,,,html-keyboard-response,64,1129362,0.0-8.0-0.9,144,1,2023-05-03 07:10:53,01d174b5381169e1ff9a157e8bbbf5c7,,"Mozilla/5.0 (Windows NT 10.0; Win64; x64) AppleWebKit/537.36 (KHTML, like Gecko) Chrome/112.0.0.0 Safari/537.36",WebKit,Chrome,112.0.0.0,Windows,10.0,null,"<div style=""font-size:60px;"">+</div>",null,fixation,,,,,
,,,,,image-button-response,65,1138124,0.0-8.0-1.9,144,1,2023-05-03 07:10:53,01d174b5381169e1ff9a157e8bbbf5c7,,"Mozilla/5.0 (Windows NT 10.0; Win64; x64) AppleWebKit/537.36 (KHTML, like Gecko) Chrome/112.0.0.0 Safari/537.36",WebKit,Chrome,112.0.0.0,Windows,10.0,8758,img/Andrena_fulva_21567123_1.jpg,2,response_2,Andrena fulva,true,,,
,,,,,html-button-response,66,1142044,0.0-9.0,144,1,2023-05-03 07:10:53,01d174b5381169e1ff9a157e8bbbf5c7,,"Mozilla/5.0 (Windows NT 10.0; Win64; x64) AppleWebKit/537.36 (KHTML, like Gecko) Chrome/112.0.0.0 Safari/537.36",WebKit,Chrome,112.0.0.0,Windows,10.0,3918,"<p>Num. trials: 10, out of which 7 were correct.</p>
    	      <p>You responded correctly on 70% of the trials.</p>
            <p>Your average response time was 14457ms.</p>
            <p>Click <strong>Continue</strong> to start the questionnaire.</p>",0,,,,,,
,,,,,survey-multi-choice,67,1375565,0.0-10.0,144,1,2023-05-03 07:10:53,01d174b5381169e1ff9a157e8bbbf5c7,,"Mozilla/5.0 (Windows NT 10.0; Win64; x64) AppleWebKit/537.36 (KHTML, like Gecko) Chrome/112.0.0.0 Safari/537.36",WebKit,Chrome,112.0.0.0,Windows,10.0,233516,,"{""support_exp"":""somewhat disagree"",""causal_exp"":""somewhat agree"",""know_exp"":""strongly agree"",""understand_exp"":""neutral""}",,,,,,"[0,1,2,3]"
,,,,,html-button-response,68,1383340,0.0-11.0,144,1,2023-05-03 07:10:53,01d174b5381169e1ff9a157e8bbbf5c7,,"Mozilla/5.0 (Windows NT 10.0; Win64; x64) AppleWebKit/537.36 (KHTML, like Gecko) Chrome/112.0.0.0 Safari/537.36",WebKit,Chrome,112.0.0.0,Windows,10.0,7769,"<p><strong>Thank you for participating! Have a nice day :^)</strong></p>
    <p>For SurveyCircle users (www.surveycircle.com): The Survey Code is: 6PNF-KGSM-JJHP-L6PF</p>",0,,,,,,
true,false,[],[],[],preload,0,1274,0.0-0.0,114,1,2023-04-28 08:12:08,01d174b5381169e1ff9a157e8bbbf5c7,,Mozilla/5.0 (Windows NT 10.0; Win64; x64; rv:102.0) Gecko/20100101 Firefox/102.0,,Firefox,102.0,Windows,10.0,,,,,,,,,
,,,,,html-button-response,1,3876070,0.0-1.0,114,1,2023-04-28 08:12:08,01d174b5381169e1ff9a157e8bbbf5c7,,Mozilla/5.0 (Windows NT 10.0; Win64; x64; rv:102.0) Gecko/20100101 Firefox/102.0,,Firefox,102.0,Windows,10.0,3874793,"<strong>Welcome to the <i>beexplainable</i> experiment!</strong>
               <p><i>Note</i>: Please only do this experiment <strong>once</strong>.</p>
               <p>We also recommend you use a device with a wider screen (i.e. laptop, tablet) <strong>not</strong> your phone.",0,,,,,,
,,,,,html-button-response,2,3902373,0.0-2.0,114,1,2023-04-28 08:12:08,01d174b5381169e1ff9a157e8bbbf5c7,,Mozilla/5.0 (Windows NT 10.0; Win64; x64; rv:102.0) Gecko/20100101 Firefox/102.0,,Firefox,102.0,Windows,10.0,26300,"	  
      <p>In this experiment, you will be shown 30 images of 5 
	wild bee species and be asked to solve three tasks.</p><p><strong>Task 1 (10 images)</strong>: Assign a species to the
	test image based on the prototypes shown on the right half of the page.</p>
      <p><strong>Task 2 (10 images)</strong>: Assign a species while also knowing our model's prediction (marked red in title).</p>
	    <p><strong>Task 3 (10 images)</strong>: Assign again a species only with the help of the prototypes 
	    (no model prediction revealed).</p><p><i>Note</i>: From this moment on, please avoid resizing your browser window, as this may cause 
	    the zooming tool to malfunction.</p>
    ",0,,,,,,
,,,,,html-button-response,3,3939869,0.0-3.0,114,1,2023-04-28 08:12:08,01d174b5381169e1ff9a157e8bbbf5c7,,Mozilla/5.0 (Windows NT 10.0; Win64; x64; rv:102.0) Gecko/20100101 Firefox/102.0,,Firefox,102.0,Windows,10.0,37494,"
  <div id=""div_row"">
      <div class=""row"">
          <div class=""column"">
              <div class=""card"">
                  <img src=""img/Andrena_bicolor_proto.jpg"" alt=""bico"">
                  <h5>Andrena bicolor</h5>
              </div>
          </div>

          <div class=""column"">
              <div class=""card"">
                  <img src=""img/Andrena_flavipes_proto.jpg"" alt=""flavi"">
                  <h5>Andrena flavipes</h5>
              </div>
          </div>

          <div class=""column"">
              <div class=""card"">
                  <img src=""img/Andrena_fulva_proto.jpg"" alt=""fulva"">
                  <h5>Andrena fulva</h5>
              </div>
          </div>
      </div>

      <div class=""row"">
          <div class=""column"">
              <div class=""card"">
                  <img src=""img/Bombus_lucorum_proto.jpg"" alt=""luco"">
                  <h5>Bombus lucorum</h5>
              </div>
          </div>

          <div class=""column"">
              <div class=""card"">
                  <img src=""img/Bombus_pratorum_proto.jpg"" alt=""prato"">
                  <h5>Bombus pratorum</h5>
              </div>
          </div>
          
          <div class=""column"">
              
          </div>
      </div>
  </div><div id=""just_protos_prompt_div""><p>Before starting the experiment, take your time and look at the 5 samples on the right.
	Each of them was chosen as a prototype of their species. Throughout the whole experiment you will be shown these representative samples 
	next to the test samples to help you decide which species the test sample belongs to. 
	<p>Whenever you are ready, click <strong>Continue</strong> to start the first task:</p>
	<p><strong>Task 1 (10 images): Assign a species to the
	test image based on the prototypes.</strong></p></div>",0,,,,,,
,,,,,html-keyboard-response,4,3941127,0.0-4.0-0.0,114,1,2023-04-28 08:12:08,01d174b5381169e1ff9a157e8bbbf5c7,,Mozilla/5.0 (Windows NT 10.0; Win64; x64; rv:102.0) Gecko/20100101 Firefox/102.0,,Firefox,102.0,Windows,10.0,null,"<div style=""font-size:60px;"">+</div>",null,fixation,,,,,
,,,,,image-button-response,5,3958982,0.0-4.0-1.0,114,1,2023-04-28 08:12:08,01d174b5381169e1ff9a157e8bbbf5c7,,Mozilla/5.0 (Windows NT 10.0; Win64; x64; rv:102.0) Gecko/20100101 Firefox/102.0,,Firefox,102.0,Windows,10.0,17846,img/Andrena_bicolor_40186737_3.jpg,0,response_1,Andrena bicolor,true,,,
,,,,,html-keyboard-response,6,3959748,0.0-4.0-0.1,114,1,2023-04-28 08:12:08,01d174b5381169e1ff9a157e8bbbf5c7,,Mozilla/5.0 (Windows NT 10.0; Win64; x64; rv:102.0) Gecko/20100101 Firefox/102.0,,Firefox,102.0,Windows,10.0,null,"<div style=""font-size:60px;"">+</div>",null,fixation,,,,,
,,,,,image-button-response,7,3971351,0.0-4.0-1.1,114,1,2023-04-28 08:12:08,01d174b5381169e1ff9a157e8bbbf5c7,,Mozilla/5.0 (Windows NT 10.0; Win64; x64; rv:102.0) Gecko/20100101 Firefox/102.0,,Firefox,102.0,Windows,10.0,11598,img/Bombus_pratorum_21992207_1.jpg,4,response_1,Bombus pratorum,true,,,
,,,,,html-keyboard-response,8,3971610,0.0-4.0-0.2,114,1,2023-04-28 08:12:08,01d174b5381169e1ff9a157e8bbbf5c7,,Mozilla/5.0 (Windows NT 10.0; Win64; x64; rv:102.0) Gecko/20100101 Firefox/102.0,,Firefox,102.0,Windows,10.0,null,"<div style=""font-size:60px;"">+</div>",null,fixation,,,,,
,,,,,image-button-response,9,3993291,0.0-4.0-1.2,114,1,2023-04-28 08:12:08,01d174b5381169e1ff9a157e8bbbf5c7,,Mozilla/5.0 (Windows NT 10.0; Win64; x64; rv:102.0) Gecko/20100101 Firefox/102.0,,Firefox,102.0,Windows,10.0,21673,img/Andrena_bicolor_70513296_3.jpg,2,response_1,Andrena bicolor,false,,,
,,,,,html-keyboard-response,10,3993555,0.0-4.0-0.3,114,1,2023-04-28 08:12:08,01d174b5381169e1ff9a157e8bbbf5c7,,Mozilla/5.0 (Windows NT 10.0; Win64; x64; rv:102.0) Gecko/20100101 Firefox/102.0,,Firefox,102.0,Windows,10.0,null,"<div style=""font-size:60px;"">+</div>",null,fixation,,,,,
,,,,,image-button-response,11,4001359,0.0-4.0-1.3,114,1,2023-04-28 08:12:08,01d174b5381169e1ff9a157e8bbbf5c7,,Mozilla/5.0 (Windows NT 10.0; Win64; x64; rv:102.0) Gecko/20100101 Firefox/102.0,,Firefox,102.0,Windows,10.0,7796,img/Bombus_pratorum_47520957_1.jpg,3,response_1,Bombus pratorum,false,,,
,,,,,html-keyboard-response,12,4001623,0.0-4.0-0.4,114,1,2023-04-28 08:12:08,01d174b5381169e1ff9a157e8bbbf5c7,,Mozilla/5.0 (Windows NT 10.0; Win64; x64; rv:102.0) Gecko/20100101 Firefox/102.0,,Firefox,102.0,Windows,10.0,null,"<div style=""font-size:60px;"">+</div>",null,fixation,,,,,
,,,,,image-button-response,13,4010802,0.0-4.0-1.4,114,1,2023-04-28 08:12:08,01d174b5381169e1ff9a157e8bbbf5c7,,Mozilla/5.0 (Windows NT 10.0; Win64; x64; rv:102.0) Gecko/20100101 Firefox/102.0,,Firefox,102.0,Windows,10.0,9175,img/Bombus_terrestris_55204752_1.jpg,2,response_1,Bombus lucorum,false,,,
,,,,,html-keyboard-response,14,4011314,0.0-4.0-0.5,114,1,2023-04-28 08:12:08,01d174b5381169e1ff9a157e8bbbf5c7,,Mozilla/5.0 (Windows NT 10.0; Win64; x64; rv:102.0) Gecko/20100101 Firefox/102.0,,Firefox,102.0,Windows,10.0,null,"<div style=""font-size:60px;"">+</div>",null,fixation,,,,,
,,,,,image-button-response,15,4017398,0.0-4.0-1.5,114,1,2023-04-28 08:12:08,01d174b5381169e1ff9a157e8bbbf5c7,,Mozilla/5.0 (Windows NT 10.0; Win64; x64; rv:102.0) Gecko/20100101 Firefox/102.0,,Firefox,102.0,Windows,10.0,6081,img/Andrena_fulva_21366312_1.jpg,3,response_1,Andrena fulva,false,,,
,,,,,html-keyboard-response,16,4017650,0.0-4.0-0.6,114,1,2023-04-28 08:12:08,01d174b5381169e1ff9a157e8bbbf5c7,,Mozilla/5.0 (Windows NT 10.0; Win64; x64; rv:102.0) Gecko/20100101 Firefox/102.0,,Firefox,102.0,Windows,10.0,null,"<div style=""font-size:60px;"">+</div>",null,fixation,,,,,
,,,,,image-button-response,17,4020962,0.0-4.0-1.6,114,1,2023-04-28 08:12:08,01d174b5381169e1ff9a157e8bbbf5c7,,Mozilla/5.0 (Windows NT 10.0; Win64; x64; rv:102.0) Gecko/20100101 Firefox/102.0,,Firefox,102.0,Windows,10.0,3306,img/Bombus_pratorum_26908927_1.jpg,1,response_1,Bombus pratorum,false,,,
,,,,,html-keyboard-response,18,4021719,0.0-4.0-0.7,114,1,2023-04-28 08:12:08,01d174b5381169e1ff9a157e8bbbf5c7,,Mozilla/5.0 (Windows NT 10.0; Win64; x64; rv:102.0) Gecko/20100101 Firefox/102.0,,Firefox,102.0,Windows,10.0,null,"<div style=""font-size:60px;"">+</div>",null,fixation,,,,,
,,,,,image-button-response,19,4024691,0.0-4.0-1.7,114,1,2023-04-28 08:12:08,01d174b5381169e1ff9a157e8bbbf5c7,,Mozilla/5.0 (Windows NT 10.0; Win64; x64; rv:102.0) Gecko/20100101 Firefox/102.0,,Firefox,102.0,Windows,10.0,2969,img/Andrena_flavipes_33657115_1.jpg,1,response_1,Andrena flavipes,true,,,
,,,,,html-keyboard-response,20,4024953,0.0-4.0-0.8,114,1,2023-04-28 08:12:08,01d174b5381169e1ff9a157e8bbbf5c7,,Mozilla/5.0 (Windows NT 10.0; Win64; x64; rv:102.0) Gecko/20100101 Firefox/102.0,,Firefox,102.0,Windows,10.0,null,"<div style=""font-size:60px;"">+</div>",null,fixation,,,,,
,,,,,image-button-response,21,4026948,0.0-4.0-1.8,114,1,2023-04-28 08:12:08,01d174b5381169e1ff9a157e8bbbf5c7,,Mozilla/5.0 (Windows NT 10.0; Win64; x64; rv:102.0) Gecko/20100101 Firefox/102.0,,Firefox,102.0,Windows,10.0,1988,img/Andrena_flavipes_41517541_3.jpg,1,response_1,Andrena flavipes,true,,,
,,,,,html-keyboard-response,22,4027449,0.0-4.0-0.9,114,1,2023-04-28 08:12:08,01d174b5381169e1ff9a157e8bbbf5c7,,Mozilla/5.0 (Windows NT 10.0; Win64; x64; rv:102.0) Gecko/20100101 Firefox/102.0,,Firefox,102.0,Windows,10.0,null,"<div style=""font-size:60px;"">+</div>",null,fixation,,,,,
,,,,,image-button-response,23,4034444,0.0-4.0-1.9,114,1,2023-04-28 08:12:08,01d174b5381169e1ff9a157e8bbbf5c7,,Mozilla/5.0 (Windows NT 10.0; Win64; x64; rv:102.0) Gecko/20100101 Firefox/102.0,,Firefox,102.0,Windows,10.0,6989,img/Andrena_fulva_24609371_6.jpg,2,response_1,Andrena fulva,true,,,
,,,,,html-button-response,24,4039170,0.0-5.0,114,1,2023-04-28 08:12:08,01d174b5381169e1ff9a157e8bbbf5c7,,Mozilla/5.0 (Windows NT 10.0; Win64; x64; rv:102.0) Gecko/20100101 Firefox/102.0,,Firefox,102.0,Windows,10.0,4724,"<p>Num. trials: 10, out of which 5 were correct.</p>
	      <p>You responded correctly on 50% of the trials.</p>
        <p>Your average response time was 8942ms.</p>
        <p>Click <strong>Continue</strong> to start the next task:</p>
        <p><strong>Task 2 (10 images): Assign a species while also knowing our model's prediction (marked red in title).</strong></p>",0,,,,,,
,,,,,html-keyboard-response,25,4039427,0.0-6.0-0.0,114,1,2023-04-28 08:12:08,01d174b5381169e1ff9a157e8bbbf5c7,,Mozilla/5.0 (Windows NT 10.0; Win64; x64; rv:102.0) Gecko/20100101 Firefox/102.0,,Firefox,102.0,Windows,10.0,null,"<div style=""font-size:60px;"">+</div>",null,fixation,,,,,
,,,,,image-button-response,26,4048690,0.0-6.0-1.0,114,1,2023-04-28 08:12:08,01d174b5381169e1ff9a157e8bbbf5c7,,Mozilla/5.0 (Windows NT 10.0; Win64; x64; rv:102.0) Gecko/20100101 Firefox/102.0,,Firefox,102.0,Windows,10.0,9252,img/Andrena_flavipes_73411496_1.jpg,1,response_pred,Andrena flavipes,true,Andrena flavipes,,
,,,,,html-keyboard-response,27,4048942,0.0-6.0-0.1,114,1,2023-04-28 08:12:08,01d174b5381169e1ff9a157e8bbbf5c7,,Mozilla/5.0 (Windows NT 10.0; Win64; x64; rv:102.0) Gecko/20100101 Firefox/102.0,,Firefox,102.0,Windows,10.0,null,"<div style=""font-size:60px;"">+</div>",null,fixation,,,,,
,,,,,image-button-response,28,4055566,0.0-6.0-1.1,114,1,2023-04-28 08:12:08,01d174b5381169e1ff9a157e8bbbf5c7,,Mozilla/5.0 (Windows NT 10.0; Win64; x64; rv:102.0) Gecko/20100101 Firefox/102.0,,Firefox,102.0,Windows,10.0,6614,img/Bombus_terrestris_72770462_2.jpg,3,response_pred,Bombus lucorum,true,Bombus lucorum,,
,,,,,html-keyboard-response,29,4056068,0.0-6.0-0.2,114,1,2023-04-28 08:12:08,01d174b5381169e1ff9a157e8bbbf5c7,,Mozilla/5.0 (Windows NT 10.0; Win64; x64; rv:102.0) Gecko/20100101 Firefox/102.0,,Firefox,102.0,Windows,10.0,null,"<div style=""font-size:60px;"">+</div>",null,fixation,,,,,
,,,,,image-button-response,30,4065289,0.0-6.0-1.2,114,1,2023-04-28 08:12:08,01d174b5381169e1ff9a157e8bbbf5c7,,Mozilla/5.0 (Windows NT 10.0; Win64; x64; rv:102.0) Gecko/20100101 Firefox/102.0,,Firefox,102.0,Windows,10.0,9217,img/Andrena_flavipes_71664833_1.jpg,4,response_pred,Andrena flavipes,false,Andrena flavipes,,
,,,,,html-keyboard-response,31,4065552,0.0-6.0-0.3,114,1,2023-04-28 08:12:08,01d174b5381169e1ff9a157e8bbbf5c7,,Mozilla/5.0 (Windows NT 10.0; Win64; x64; rv:102.0) Gecko/20100101 Firefox/102.0,,Firefox,102.0,Windows,10.0,null,"<div style=""font-size:60px;"">+</div>",null,fixation,,,,,
,,,,,image-button-response,32,4074139,0.0-6.0-1.3,114,1,2023-04-28 08:12:08,01d174b5381169e1ff9a157e8bbbf5c7,,Mozilla/5.0 (Windows NT 10.0; Win64; x64; rv:102.0) Gecko/20100101 Firefox/102.0,,Firefox,102.0,Windows,10.0,8581,img/Andrena_fulva_78200707_1.jpg,3,response_pred,Andrena fulva,false,Andrena fulva,,
,,,,,html-keyboard-response,33,4074893,0.0-6.0-0.4,114,1,2023-04-28 08:12:08,01d174b5381169e1ff9a157e8bbbf5c7,,Mozilla/5.0 (Windows NT 10.0; Win64; x64; rv:102.0) Gecko/20100101 Firefox/102.0,,Firefox,102.0,Windows,10.0,null,"<div style=""font-size:60px;"">+</div>",null,fixation,,,,,
,,,,,image-button-response,34,4083793,0.0-6.0-1.4,114,1,2023-04-28 08:12:08,01d174b5381169e1ff9a157e8bbbf5c7,,Mozilla/5.0 (Windows NT 10.0; Win64; x64; rv:102.0) Gecko/20100101 Firefox/102.0,,Firefox,102.0,Windows,10.0,8892,img/Andrena_fulva_76966123_1.jpg,2,response_pred,Andrena fulva,true,Andrena bicolor,,
,,,,,html-keyboard-response,35,4084046,0.0-6.0-0.5,114,1,2023-04-28 08:12:08,01d174b5381169e1ff9a157e8bbbf5c7,,Mozilla/5.0 (Windows NT 10.0; Win64; x64; rv:102.0) Gecko/20100101 Firefox/102.0,,Firefox,102.0,Windows,10.0,null,"<div style=""font-size:60px;"">+</div>",null,fixation,,,,,
,,,,,image-button-response,36,4090009,0.0-6.0-1.5,114,1,2023-04-28 08:12:08,01d174b5381169e1ff9a157e8bbbf5c7,,Mozilla/5.0 (Windows NT 10.0; Win64; x64; rv:102.0) Gecko/20100101 Firefox/102.0,,Firefox,102.0,Windows,10.0,5955,img/Bombus_pratorum_45862602_1.jpg,4,response_pred,Bombus pratorum,true,Bombus pratorum,,
,,,,,html-keyboard-response,37,4090261,0.0-6.0-0.6,114,1,2023-04-28 08:12:08,01d174b5381169e1ff9a157e8bbbf5c7,,Mozilla/5.0 (Windows NT 10.0; Win64; x64; rv:102.0) Gecko/20100101 Firefox/102.0,,Firefox,102.0,Windows,10.0,null,"<div style=""font-size:60px;"">+</div>",null,fixation,,,,,
,,,,,image-button-response,38,4094240,0.0-6.0-1.6,114,1,2023-04-28 08:12:08,01d174b5381169e1ff9a157e8bbbf5c7,,Mozilla/5.0 (Windows NT 10.0; Win64; x64; rv:102.0) Gecko/20100101 Firefox/102.0,,Firefox,102.0,Windows,10.0,3970,img/Andrena_bicolor_70836009_4.jpg,3,response_pred,Andrena bicolor,false,Andrena bicolor,,
,,,,,html-keyboard-response,39,4094506,0.0-6.0-0.7,114,1,2023-04-28 08:12:08,01d174b5381169e1ff9a157e8bbbf5c7,,Mozilla/5.0 (Windows NT 10.0; Win64; x64; rv:102.0) Gecko/20100101 Firefox/102.0,,Firefox,102.0,Windows,10.0,null,"<div style=""font-size:60px;"">+</div>",null,fixation,,,,,
,,,,,image-button-response,40,4098800,0.0-6.0-1.7,114,1,2023-04-28 08:12:08,01d174b5381169e1ff9a157e8bbbf5c7,,Mozilla/5.0 (Windows NT 10.0; Win64; x64; rv:102.0) Gecko/20100101 Firefox/102.0,,Firefox,102.0,Windows,10.0,4288,img/Bombus_pratorum_42078196_1.jpg,4,response_pred,Bombus pratorum,true,Bombus pratorum,,
,,,,,html-keyboard-response,41,4099317,0.0-6.0-0.8,114,1,2023-04-28 08:12:08,01d174b5381169e1ff9a157e8bbbf5c7,,Mozilla/5.0 (Windows NT 10.0; Win64; x64; rv:102.0) Gecko/20100101 Firefox/102.0,,Firefox,102.0,Windows,10.0,null,"<div style=""font-size:60px;"">+</div>",null,fixation,,,,,
,,,,,image-button-response,42,4105442,0.0-6.0-1.8,114,1,2023-04-28 08:12:08,01d174b5381169e1ff9a157e8bbbf5c7,,Mozilla/5.0 (Windows NT 10.0; Win64; x64; rv:102.0) Gecko/20100101 Firefox/102.0,,Firefox,102.0,Windows,10.0,6111,img/Bombus_pratorum_21985654_1.jpg,3,response_pred,Bombus pratorum,false,Bombus pratorum,,
,,,,,html-keyboard-response,43,4106202,0.0-6.0-0.9,114,1,2023-04-28 08:12:08,01d174b5381169e1ff9a157e8bbbf5c7,,Mozilla/5.0 (Windows NT 10.0; Win64; x64; rv:102.0) Gecko/20100101 Firefox/102.0,,Firefox,102.0,Windows,10.0,null,"<div style=""font-size:60px;"">+</div>",null,fixation,,,,,
,,,,,image-button-response,44,4110845,0.0-6.0-1.9,114,1,2023-04-28 08:12:08,01d174b5381169e1ff9a157e8bbbf5c7,,Mozilla/5.0 (Windows NT 10.0; Win64; x64; rv:102.0) Gecko/20100101 Firefox/102.0,,Firefox,102.0,Windows,10.0,4639,img/Bombus_pratorum_41522167_1.jpg,4,response_pred,Bombus pratorum,true,Bombus lucorum,,
,,,,,html-button-response,45,4116924,0.0-7.0,114,1,2023-04-28 08:12:08,01d174b5381169e1ff9a157e8bbbf5c7,,Mozilla/5.0 (Windows NT 10.0; Win64; x64; rv:102.0) Gecko/20100101 Firefox/102.0,,Firefox,102.0,Windows,10.0,6078,"<p>Num. trials: 10, out of which 6 were correct.</p>
	      <p>You responded correctly on 60% of the trials.</p>
        <p>Your average response time was 6752ms.</p>
        <p>Click <strong>Continue</strong> to start the next task:</p>
        <p><strong>Task 3 (10 images): Assign again a species only with the help of the prototypes 
	    (no model prediction revealed).</strong></p>",0,,,,,,
,,,,,html-keyboard-response,46,4117434,0.0-8.0-0.0,114,1,2023-04-28 08:12:08,01d174b5381169e1ff9a157e8bbbf5c7,,Mozilla/5.0 (Windows NT 10.0; Win64; x64; rv:102.0) Gecko/20100101 Firefox/102.0,,Firefox,102.0,Windows,10.0,null,"<div style=""font-size:60px;"">+</div>",null,fixation,,,,,
,,,,,image-button-response,47,4120575,0.0-8.0-1.0,114,1,2023-04-28 08:12:08,01d174b5381169e1ff9a157e8bbbf5c7,,Mozilla/5.0 (Windows NT 10.0; Win64; x64; rv:102.0) Gecko/20100101 Firefox/102.0,,Firefox,102.0,Windows,10.0,3134,img/Andrena_flavipes_40832925_3.jpg,1,response_2,Andrena flavipes,true,,,
,,,,,html-keyboard-response,48,4121331,0.0-8.0-0.1,114,1,2023-04-28 08:12:08,01d174b5381169e1ff9a157e8bbbf5c7,,Mozilla/5.0 (Windows NT 10.0; Win64; x64; rv:102.0) Gecko/20100101 Firefox/102.0,,Firefox,102.0,Windows,10.0,null,"<div style=""font-size:60px;"">+</div>",null,fixation,,,,,
,,,,,image-button-response,49,4125493,0.0-8.0-1.1,114,1,2023-04-28 08:12:08,01d174b5381169e1ff9a157e8bbbf5c7,,Mozilla/5.0 (Windows NT 10.0; Win64; x64; rv:102.0) Gecko/20100101 Firefox/102.0,,Firefox,102.0,Windows,10.0,4153,img/Andrena_bicolor_97033019_1.jpg,3,response_2,Andrena bicolor,false,,,
,,,,,html-keyboard-response,50,4126251,0.0-8.0-0.2,114,1,2023-04-28 08:12:08,01d174b5381169e1ff9a157e8bbbf5c7,,Mozilla/5.0 (Windows NT 10.0; Win64; x64; rv:102.0) Gecko/20100101 Firefox/102.0,,Firefox,102.0,Windows,10.0,null,"<div style=""font-size:60px;"">+</div>",null,fixation,,,,,
,,,,,image-button-response,51,4127951,0.0-8.0-1.2,114,1,2023-04-28 08:12:08,01d174b5381169e1ff9a157e8bbbf5c7,,Mozilla/5.0 (Windows NT 10.0; Win64; x64; rv:102.0) Gecko/20100101 Firefox/102.0,,Firefox,102.0,Windows,10.0,1694,img/Andrena_bicolor_42078638_3.jpg,0,response_2,Andrena bicolor,true,,,
,,,,,html-keyboard-response,52,4128458,0.0-8.0-0.3,114,1,2023-04-28 08:12:08,01d174b5381169e1ff9a157e8bbbf5c7,,Mozilla/5.0 (Windows NT 10.0; Win64; x64; rv:102.0) Gecko/20100101 Firefox/102.0,,Firefox,102.0,Windows,10.0,null,"<div style=""font-size:60px;"">+</div>",null,fixation,,,,,
,,,,,image-button-response,53,4132280,0.0-8.0-1.3,114,1,2023-04-28 08:12:08,01d174b5381169e1ff9a157e8bbbf5c7,,Mozilla/5.0 (Windows NT 10.0; Win64; x64; rv:102.0) Gecko/20100101 Firefox/102.0,,Firefox,102.0,Windows,10.0,3816,img/Bombus_terrestris_50405525_1.jpg,2,response_2,Bombus lucorum,false,,,
,,,,,html-keyboard-response,54,4132781,0.0-8.0-0.4,114,1,2023-04-28 08:12:08,01d174b5381169e1ff9a157e8bbbf5c7,,Mozilla/5.0 (Windows NT 10.0; Win64; x64; rv:102.0) Gecko/20100101 Firefox/102.0,,Firefox,102.0,Windows,10.0,null,"<div style=""font-size:60px;"">+</div>",null,fixation,,,,,
,,,,,image-button-response,55,4137352,0.0-8.0-1.4,114,1,2023-04-28 08:12:08,01d174b5381169e1ff9a157e8bbbf5c7,,Mozilla/5.0 (Windows NT 10.0; Win64; x64; rv:102.0) Gecko/20100101 Firefox/102.0,,Firefox,102.0,Windows,10.0,4564,img/Bombus_pratorum_45761945_1.jpg,3,response_2,Bombus pratorum,false,,,
,,,,,html-keyboard-response,56,4137608,0.0-8.0-0.5,114,1,2023-04-28 08:12:08,01d174b5381169e1ff9a157e8bbbf5c7,,Mozilla/5.0 (Windows NT 10.0; Win64; x64; rv:102.0) Gecko/20100101 Firefox/102.0,,Firefox,102.0,Windows,10.0,null,"<div style=""font-size:60px;"">+</div>",null,fixation,,,,,
,,,,,image-button-response,57,4139482,0.0-8.0-1.5,114,1,2023-04-28 08:12:08,01d174b5381169e1ff9a157e8bbbf5c7,,Mozilla/5.0 (Windows NT 10.0; Win64; x64; rv:102.0) Gecko/20100101 Firefox/102.0,,Firefox,102.0,Windows,10.0,1865,img/Andrena_flavipes_42347630_1.jpg,1,response_2,Andrena flavipes,true,,,
,,,,,html-keyboard-response,58,4139984,0.0-8.0-0.6,114,1,2023-04-28 08:12:08,01d174b5381169e1ff9a157e8bbbf5c7,,Mozilla/5.0 (Windows NT 10.0; Win64; x64; rv:102.0) Gecko/20100101 Firefox/102.0,,Firefox,102.0,Windows,10.0,null,"<div style=""font-size:60px;"">+</div>",null,fixation,,,,,
,,,,,image-button-response,59,4143653,0.0-8.0-1.6,114,1,2023-04-28 08:12:08,01d174b5381169e1ff9a157e8bbbf5c7,,Mozilla/5.0 (Windows NT 10.0; Win64; x64; rv:102.0) Gecko/20100101 Firefox/102.0,,Firefox,102.0,Windows,10.0,3664,img/Andrena_fulva_21567123_1.jpg,4,response_2,Andrena fulva,false,,,
,,,,,html-keyboard-response,60,4143909,0.0-8.0-0.7,114,1,2023-04-28 08:12:08,01d174b5381169e1ff9a157e8bbbf5c7,,Mozilla/5.0 (Windows NT 10.0; Win64; x64; rv:102.0) Gecko/20100101 Firefox/102.0,,Firefox,102.0,Windows,10.0,null,"<div style=""font-size:60px;"">+</div>",null,fixation,,,,,
,,,,,image-button-response,61,4155466,0.0-8.0-1.7,114,1,2023-04-28 08:12:08,01d174b5381169e1ff9a157e8bbbf5c7,,Mozilla/5.0 (Windows NT 10.0; Win64; x64; rv:102.0) Gecko/20100101 Firefox/102.0,,Firefox,102.0,Windows,10.0,11552,img/Bombus_terrestris_53737090_1.jpg,0,response_2,Bombus lucorum,false,,,
,,,,,html-keyboard-response,62,4155734,0.0-8.0-0.8,114,1,2023-04-28 08:12:08,01d174b5381169e1ff9a157e8bbbf5c7,,Mozilla/5.0 (Windows NT 10.0; Win64; x64; rv:102.0) Gecko/20100101 Firefox/102.0,,Firefox,102.0,Windows,10.0,null,"<div style=""font-size:60px;"">+</div>",null,fixation,,,,,
,,,,,image-button-response,63,4158991,0.0-8.0-1.8,114,1,2023-04-28 08:12:08,01d174b5381169e1ff9a157e8bbbf5c7,,Mozilla/5.0 (Windows NT 10.0; Win64; x64; rv:102.0) Gecko/20100101 Firefox/102.0,,Firefox,102.0,Windows,10.0,3248,img/Bombus_terrestris_56168748_1.jpg,4,response_2,Bombus lucorum,false,,,
,,,,,html-keyboard-response,64,4159246,0.0-8.0-0.9,114,1,2023-04-28 08:12:08,01d174b5381169e1ff9a157e8bbbf5c7,,Mozilla/5.0 (Windows NT 10.0; Win64; x64; rv:102.0) Gecko/20100101 Firefox/102.0,,Firefox,102.0,Windows,10.0,null,"<div style=""font-size:60px;"">+</div>",null,fixation,,,,,
,,,,,image-button-response,65,4161204,0.0-8.0-1.9,114,1,2023-04-28 08:12:08,01d174b5381169e1ff9a157e8bbbf5c7,,Mozilla/5.0 (Windows NT 10.0; Win64; x64; rv:102.0) Gecko/20100101 Firefox/102.0,,Firefox,102.0,Windows,10.0,1954,img/Andrena_fulva_43280860_1.jpg,3,response_2,Andrena fulva,false,,,
,,,,,html-button-response,66,4162918,0.0-9.0,114,1,2023-04-28 08:12:08,01d174b5381169e1ff9a157e8bbbf5c7,,Mozilla/5.0 (Windows NT 10.0; Win64; x64; rv:102.0) Gecko/20100101 Firefox/102.0,,Firefox,102.0,Windows,10.0,1712,"<p>Num. trials: 10, out of which 3 were correct.</p>
    	      <p>You responded correctly on 30% of the trials.</p>
            <p>Your average response time was 3964ms.</p>
            <p>Click <strong>Continue</strong> to end the experiment.</p>",0,,,,,,
,,,,,html-button-response,67,4165643,0.0-10.0,114,1,2023-04-28 08:12:08,01d174b5381169e1ff9a157e8bbbf5c7,,Mozilla/5.0 (Windows NT 10.0; Win64; x64; rv:102.0) Gecko/20100101 Firefox/102.0,,Firefox,102.0,Windows,10.0,2722,"<p><strong>Thank you for participating! Have a nice day :^)</strong></p>
    <p>For SurveyCircle users (www.surveycircle.com): The Survey Code is: 6PNF-KGSM-JJHP-L6PF</p>",0,,,,,,
true,false,[],[],[],preload,0,1565,0.0-0.0,108,1,2023-04-27 11:19:54,01d174b5381169e1ff9a157e8bbbf5c7,,"Mozilla/5.0 (Linux; Android 12; M2102J20SG) AppleWebKit/537.36 (KHTML, like Gecko) Chrome/112.0.0.0 Mobile Safari/537.36",WebKit,Chrome,112.0.0.0,AndroidOS,12,,,,,,,,,,PAAaYvTTQZK3jpury1Z68Iz4xVf_MkdqnDH7lX7w0Iu3UM3WHnIzjNSw9A3Yo
,,,,,html-button-response,1,25639,0.0-1.0,108,1,2023-04-27 11:19:54,01d174b5381169e1ff9a157e8bbbf5c7,,"Mozilla/5.0 (Linux; Android 12; M2102J20SG) AppleWebKit/537.36 (KHTML, like Gecko) Chrome/112.0.0.0 Mobile Safari/537.36",WebKit,Chrome,112.0.0.0,AndroidOS,12,24069,"<strong>Welcome to the <i>beexplainable</i> experiment!</strong>
               <p><i>Note</i>: Please only do this experiment <strong>once</strong>.</p>
               <p>We also recommend you use a device with a wider screen (i.e. laptop, tablet) <strong>not</strong> your phone.",0,,,,,,,PAAaYvTTQZK3jpury1Z68Iz4xVf_MkdqnDH7lX7w0Iu3UM3WHnIzjNSw9A3Yo
,,,,,html-button-response,2,57874,0.0-2.0,108,1,2023-04-27 11:19:54,01d174b5381169e1ff9a157e8bbbf5c7,,"Mozilla/5.0 (Linux; Android 12; M2102J20SG) AppleWebKit/537.36 (KHTML, like Gecko) Chrome/112.0.0.0 Mobile Safari/537.36",WebKit,Chrome,112.0.0.0,AndroidOS,12,32228,"	  
      <p>In this experiment, you will be shown 30 images of 5 
	wild bee species and be asked to solve three tasks.</p><p><strong>Task 1 (10 images)</strong>: Assign a species to the
	test image based on the prototypes shown on the right half of the page.</p>
      <p><strong>Task 2 (10 images)</strong>: Assign a species while also knowing our model's prediction and seeing an explanation for it (marked red in title).</p>
	    <p><strong>Task 3 (10 images)</strong>: Assign again a species only with the help of the prototypes 
	    (no model prediction revealed).</p><p>After these tasks, you will be asked to rate 4 statements regarding your experience 
	throughout the experiment.</p><p><i>Note</i>: From this moment on, please avoid resizing your browser window, as this may cause 
	    the zooming tool to malfunction.</p>
    ",0,,,,,,,PAAaYvTTQZK3jpury1Z68Iz4xVf_MkdqnDH7lX7w0Iu3UM3WHnIzjNSw9A3Yo
,,,,,html-button-response,3,89372,0.0-3.0,108,1,2023-04-27 11:19:54,01d174b5381169e1ff9a157e8bbbf5c7,,"Mozilla/5.0 (Linux; Android 12; M2102J20SG) AppleWebKit/537.36 (KHTML, like Gecko) Chrome/112.0.0.0 Mobile Safari/537.36",WebKit,Chrome,112.0.0.0,AndroidOS,12,31488,"
  <div id=""div_row"">
      <div class=""row"">
          <div class=""column"">
              <div class=""card"">
                  <img src=""img/Andrena_bicolor_proto.jpg"" alt=""bico"">
                  <h5>Andrena bicolor</h5>
              </div>
          </div>

          <div class=""column"">
              <div class=""card"">
                  <img src=""img/Andrena_flavipes_proto.jpg"" alt=""flavi"">
                  <h5>Andrena flavipes</h5>
              </div>
          </div>

          <div class=""column"">
              <div class=""card"">
                  <img src=""img/Andrena_fulva_proto.jpg"" alt=""fulva"">
                  <h5>Andrena fulva</h5>
              </div>
          </div>
      </div>

      <div class=""row"">
          <div class=""column"">
              <div class=""card"">
                  <img src=""img/Bombus_lucorum_proto.jpg"" alt=""luco"">
                  <h5>Bombus lucorum</h5>
              </div>
          </div>

          <div class=""column"">
              <div class=""card"">
                  <img src=""img/Bombus_pratorum_proto.jpg"" alt=""prato"">
                  <h5>Bombus pratorum</h5>
              </div>
          </div>
          
          <div class=""column"">
              
          </div>
      </div>
  </div><div id=""just_protos_prompt_div""><p>Before starting the experiment, take your time and look at the 5 samples on the right.
	Each of them was chosen as a prototype of their species. Throughout the whole experiment you will be shown these representative samples 
	next to the test samples to help you decide which species the test sample belongs to. 
	<p>Whenever you are ready, click <strong>Continue</strong> to start the first task:</p>
	<p><strong>Task 1 (10 images): Assign a species to the
	test image based on the prototypes.</strong></p></div>",0,,,,,,,PAAaYvTTQZK3jpury1Z68Iz4xVf_MkdqnDH7lX7w0Iu3UM3WHnIzjNSw9A3Yo
,,,,,html-keyboard-response,4,91151,0.0-4.0-0.0,108,1,2023-04-27 11:19:54,01d174b5381169e1ff9a157e8bbbf5c7,,"Mozilla/5.0 (Linux; Android 12; M2102J20SG) AppleWebKit/537.36 (KHTML, like Gecko) Chrome/112.0.0.0 Mobile Safari/537.36",WebKit,Chrome,112.0.0.0,AndroidOS,12,null,"<div style=""font-size:60px;"">+</div>",null,fixation,,,,,,PAAaYvTTQZK3jpury1Z68Iz4xVf_MkdqnDH7lX7w0Iu3UM3WHnIzjNSw9A3Yo
,,,,,image-button-response,5,132330,0.0-4.0-1.0,108,1,2023-04-27 11:19:54,01d174b5381169e1ff9a157e8bbbf5c7,,"Mozilla/5.0 (Linux; Android 12; M2102J20SG) AppleWebKit/537.36 (KHTML, like Gecko) Chrome/112.0.0.0 Mobile Safari/537.36",WebKit,Chrome,112.0.0.0,AndroidOS,12,41103,img/Bombus_terrestris_53737090_1.jpg,3,response_1,Bombus lucorum,true,,,,PAAaYvTTQZK3jpury1Z68Iz4xVf_MkdqnDH7lX7w0Iu3UM3WHnIzjNSw9A3Yo
,,,,,html-keyboard-response,6,132845,0.0-4.0-0.1,108,1,2023-04-27 11:19:54,01d174b5381169e1ff9a157e8bbbf5c7,,"Mozilla/5.0 (Linux; Android 12; M2102J20SG) AppleWebKit/537.36 (KHTML, like Gecko) Chrome/112.0.0.0 Mobile Safari/537.36",WebKit,Chrome,112.0.0.0,AndroidOS,12,null,"<div style=""font-size:60px;"">+</div>",null,fixation,,,,,,PAAaYvTTQZK3jpury1Z68Iz4xVf_MkdqnDH7lX7w0Iu3UM3WHnIzjNSw9A3Yo
,,,,,image-button-response,7,146606,0.0-4.0-1.1,108,1,2023-04-27 11:19:54,01d174b5381169e1ff9a157e8bbbf5c7,,"Mozilla/5.0 (Linux; Android 12; M2102J20SG) AppleWebKit/537.36 (KHTML, like Gecko) Chrome/112.0.0.0 Mobile Safari/537.36",WebKit,Chrome,112.0.0.0,AndroidOS,12,13733,img/Andrena_flavipes_41163118_3.jpg,1,response_1,Andrena flavipes,true,,,,PAAaYvTTQZK3jpury1Z68Iz4xVf_MkdqnDH7lX7w0Iu3UM3WHnIzjNSw9A3Yo
,,,,,html-keyboard-response,8,146867,0.0-4.0-0.2,108,1,2023-04-27 11:19:54,01d174b5381169e1ff9a157e8bbbf5c7,,"Mozilla/5.0 (Linux; Android 12; M2102J20SG) AppleWebKit/537.36 (KHTML, like Gecko) Chrome/112.0.0.0 Mobile Safari/537.36",WebKit,Chrome,112.0.0.0,AndroidOS,12,null,"<div style=""font-size:60px;"">+</div>",null,fixation,,,,,,PAAaYvTTQZK3jpury1Z68Iz4xVf_MkdqnDH7lX7w0Iu3UM3WHnIzjNSw9A3Yo
,,,,,image-button-response,9,167249,0.0-4.0-1.2,108,1,2023-04-27 11:19:54,01d174b5381169e1ff9a157e8bbbf5c7,,"Mozilla/5.0 (Linux; Android 12; M2102J20SG) AppleWebKit/537.36 (KHTML, like Gecko) Chrome/112.0.0.0 Mobile Safari/537.36",WebKit,Chrome,112.0.0.0,AndroidOS,12,20355,img/Andrena_fulva_24609371_2.jpg,0,response_1,Andrena fulva,false,,,,PAAaYvTTQZK3jpury1Z68Iz4xVf_MkdqnDH7lX7w0Iu3UM3WHnIzjNSw9A3Yo
,,,,,html-keyboard-response,10,168014,0.0-4.0-0.3,108,1,2023-04-27 11:19:54,01d174b5381169e1ff9a157e8bbbf5c7,,"Mozilla/5.0 (Linux; Android 12; M2102J20SG) AppleWebKit/537.36 (KHTML, like Gecko) Chrome/112.0.0.0 Mobile Safari/537.36",WebKit,Chrome,112.0.0.0,AndroidOS,12,null,"<div style=""font-size:60px;"">+</div>",null,fixation,,,,,,PAAaYvTTQZK3jpury1Z68Iz4xVf_MkdqnDH7lX7w0Iu3UM3WHnIzjNSw9A3Yo
,,,,,image-button-response,11,175477,0.0-4.0-1.3,108,1,2023-04-27 11:19:54,01d174b5381169e1ff9a157e8bbbf5c7,,"Mozilla/5.0 (Linux; Android 12; M2102J20SG) AppleWebKit/537.36 (KHTML, like Gecko) Chrome/112.0.0.0 Mobile Safari/537.36",WebKit,Chrome,112.0.0.0,AndroidOS,12,7431,img/Andrena_flavipes_8430646_1.jpg,1,response_1,Andrena flavipes,true,,,,PAAaYvTTQZK3jpury1Z68Iz4xVf_MkdqnDH7lX7w0Iu3UM3WHnIzjNSw9A3Yo
,,,,,html-keyboard-response,12,176236,0.0-4.0-0.4,108,1,2023-04-27 11:19:54,01d174b5381169e1ff9a157e8bbbf5c7,,"Mozilla/5.0 (Linux; Android 12; M2102J20SG) AppleWebKit/537.36 (KHTML, like Gecko) Chrome/112.0.0.0 Mobile Safari/537.36",WebKit,Chrome,112.0.0.0,AndroidOS,12,null,"<div style=""font-size:60px;"">+</div>",null,fixation,,,,,,PAAaYvTTQZK3jpury1Z68Iz4xVf_MkdqnDH7lX7w0Iu3UM3WHnIzjNSw9A3Yo
,,,,,image-button-response,13,188461,0.0-4.0-1.4,108,1,2023-04-27 11:19:54,01d174b5381169e1ff9a157e8bbbf5c7,,"Mozilla/5.0 (Linux; Android 12; M2102J20SG) AppleWebKit/537.36 (KHTML, like Gecko) Chrome/112.0.0.0 Mobile Safari/537.36",WebKit,Chrome,112.0.0.0,AndroidOS,12,12191,img/Bombus_pratorum_26670234_1.jpg,4,response_1,Bombus pratorum,true,,,,PAAaYvTTQZK3jpury1Z68Iz4xVf_MkdqnDH7lX7w0Iu3UM3WHnIzjNSw9A3Yo
,,,,,html-keyboard-response,14,188722,0.0-4.0-0.5,108,1,2023-04-27 11:19:54,01d174b5381169e1ff9a157e8bbbf5c7,,"Mozilla/5.0 (Linux; Android 12; M2102J20SG) AppleWebKit/537.36 (KHTML, like Gecko) Chrome/112.0.0.0 Mobile Safari/537.36",WebKit,Chrome,112.0.0.0,AndroidOS,12,null,"<div style=""font-size:60px;"">+</div>",null,fixation,,,,,,PAAaYvTTQZK3jpury1Z68Iz4xVf_MkdqnDH7lX7w0Iu3UM3WHnIzjNSw9A3Yo
,,,,,image-button-response,15,200189,0.0-4.0-1.5,108,1,2023-04-27 11:19:54,01d174b5381169e1ff9a157e8bbbf5c7,,"Mozilla/5.0 (Linux; Android 12; M2102J20SG) AppleWebKit/537.36 (KHTML, like Gecko) Chrome/112.0.0.0 Mobile Safari/537.36",WebKit,Chrome,112.0.0.0,AndroidOS,12,11443,img/Bombus_pratorum_20908187_1.jpg,4,response_1,Bombus pratorum,true,,,,PAAaYvTTQZK3jpury1Z68Iz4xVf_MkdqnDH7lX7w0Iu3UM3WHnIzjNSw9A3Yo
,,,,,html-keyboard-response,16,200699,0.0-4.0-0.6,108,1,2023-04-27 11:19:54,01d174b5381169e1ff9a157e8bbbf5c7,,"Mozilla/5.0 (Linux; Android 12; M2102J20SG) AppleWebKit/537.36 (KHTML, like Gecko) Chrome/112.0.0.0 Mobile Safari/537.36",WebKit,Chrome,112.0.0.0,AndroidOS,12,null,"<div style=""font-size:60px;"">+</div>",null,fixation,,,,,,PAAaYvTTQZK3jpury1Z68Iz4xVf_MkdqnDH7lX7w0Iu3UM3WHnIzjNSw9A3Yo
,,,,,image-button-response,17,209159,0.0-4.0-1.6,108,1,2023-04-27 11:19:54,01d174b5381169e1ff9a157e8bbbf5c7,,"Mozilla/5.0 (Linux; Android 12; M2102J20SG) AppleWebKit/537.36 (KHTML, like Gecko) Chrome/112.0.0.0 Mobile Safari/537.36",WebKit,Chrome,112.0.0.0,AndroidOS,12,8433,img/Bombus_pratorum_45761945_1.jpg,3,response_1,Bombus pratorum,false,,,,PAAaYvTTQZK3jpury1Z68Iz4xVf_MkdqnDH7lX7w0Iu3UM3WHnIzjNSw9A3Yo
,,,,,html-keyboard-response,18,209677,0.0-4.0-0.7,108,1,2023-04-27 11:19:54,01d174b5381169e1ff9a157e8bbbf5c7,,"Mozilla/5.0 (Linux; Android 12; M2102J20SG) AppleWebKit/537.36 (KHTML, like Gecko) Chrome/112.0.0.0 Mobile Safari/537.36",WebKit,Chrome,112.0.0.0,AndroidOS,12,null,"<div style=""font-size:60px;"">+</div>",null,fixation,,,,,,PAAaYvTTQZK3jpury1Z68Iz4xVf_MkdqnDH7lX7w0Iu3UM3WHnIzjNSw9A3Yo
,,,,,image-button-response,19,221462,0.0-4.0-1.7,108,1,2023-04-27 11:19:54,01d174b5381169e1ff9a157e8bbbf5c7,,"Mozilla/5.0 (Linux; Android 12; M2102J20SG) AppleWebKit/537.36 (KHTML, like Gecko) Chrome/112.0.0.0 Mobile Safari/537.36",WebKit,Chrome,112.0.0.0,AndroidOS,12,11752,img/Bombus_terrestris_53835710_1.jpg,4,response_1,Bombus lucorum,false,,,,PAAaYvTTQZK3jpury1Z68Iz4xVf_MkdqnDH7lX7w0Iu3UM3WHnIzjNSw9A3Yo
,,,,,html-keyboard-response,20,221971,0.0-4.0-0.8,108,1,2023-04-27 11:19:54,01d174b5381169e1ff9a157e8bbbf5c7,,"Mozilla/5.0 (Linux; Android 12; M2102J20SG) AppleWebKit/537.36 (KHTML, like Gecko) Chrome/112.0.0.0 Mobile Safari/537.36",WebKit,Chrome,112.0.0.0,AndroidOS,12,null,"<div style=""font-size:60px;"">+</div>",null,fixation,,,,,,PAAaYvTTQZK3jpury1Z68Iz4xVf_MkdqnDH7lX7w0Iu3UM3WHnIzjNSw9A3Yo
,,,,,image-button-response,21,231996,0.0-4.0-1.8,108,1,2023-04-27 11:19:54,01d174b5381169e1ff9a157e8bbbf5c7,,"Mozilla/5.0 (Linux; Android 12; M2102J20SG) AppleWebKit/537.36 (KHTML, like Gecko) Chrome/112.0.0.0 Mobile Safari/537.36",WebKit,Chrome,112.0.0.0,AndroidOS,12,10006,img/Andrena_bicolor_40186737_3.jpg,1,response_1,Andrena bicolor,false,,,,PAAaYvTTQZK3jpury1Z68Iz4xVf_MkdqnDH7lX7w0Iu3UM3WHnIzjNSw9A3Yo
,,,,,html-keyboard-response,22,232756,0.0-4.0-0.9,108,1,2023-04-27 11:19:54,01d174b5381169e1ff9a157e8bbbf5c7,,"Mozilla/5.0 (Linux; Android 12; M2102J20SG) AppleWebKit/537.36 (KHTML, like Gecko) Chrome/112.0.0.0 Mobile Safari/537.36",WebKit,Chrome,112.0.0.0,AndroidOS,12,null,"<div style=""font-size:60px;"">+</div>",null,fixation,,,,,,PAAaYvTTQZK3jpury1Z68Iz4xVf_MkdqnDH7lX7w0Iu3UM3WHnIzjNSw9A3Yo
,,,,,image-button-response,23,239709,0.0-4.0-1.9,108,1,2023-04-27 11:19:54,01d174b5381169e1ff9a157e8bbbf5c7,,"Mozilla/5.0 (Linux; Android 12; M2102J20SG) AppleWebKit/537.36 (KHTML, like Gecko) Chrome/112.0.0.0 Mobile Safari/537.36",WebKit,Chrome,112.0.0.0,AndroidOS,12,6934,img/Andrena_flavipes_40178244_1.jpg,1,response_1,Andrena flavipes,true,,,,PAAaYvTTQZK3jpury1Z68Iz4xVf_MkdqnDH7lX7w0Iu3UM3WHnIzjNSw9A3Yo
,,,,,html-button-response,24,251439,0.0-5.0,108,1,2023-04-27 11:19:54,01d174b5381169e1ff9a157e8bbbf5c7,,"Mozilla/5.0 (Linux; Android 12; M2102J20SG) AppleWebKit/537.36 (KHTML, like Gecko) Chrome/112.0.0.0 Mobile Safari/537.36",WebKit,Chrome,112.0.0.0,AndroidOS,12,11720,"<p>Num. trials: 10, out of which 6 were correct.</p>
	      <p>You responded correctly on 60% of the trials.</p>
        <p>Your average response time was 14338ms.</p>
        <p>Click <strong>Continue</strong> to start the next task:</p>
        <p><strong>Task 2 (10 images): Assign a species while also knowing our model's prediction and seeing an explanation for it (marked red in title).</strong></p>",0,,,,,,,PAAaYvTTQZK3jpury1Z68Iz4xVf_MkdqnDH7lX7w0Iu3UM3WHnIzjNSw9A3Yo
,,,,,html-keyboard-response,25,251956,0.0-6.0-0.0,108,1,2023-04-27 11:19:54,01d174b5381169e1ff9a157e8bbbf5c7,,"Mozilla/5.0 (Linux; Android 12; M2102J20SG) AppleWebKit/537.36 (KHTML, like Gecko) Chrome/112.0.0.0 Mobile Safari/537.36",WebKit,Chrome,112.0.0.0,AndroidOS,12,null,"<div style=""font-size:60px;"">+</div>",null,fixation,,,,,,PAAaYvTTQZK3jpury1Z68Iz4xVf_MkdqnDH7lX7w0Iu3UM3WHnIzjNSw9A3Yo
,,,,,image-button-response,26,272986,0.0-6.0-1.0,108,1,2023-04-27 11:19:54,01d174b5381169e1ff9a157e8bbbf5c7,,"Mozilla/5.0 (Linux; Android 12; M2102J20SG) AppleWebKit/537.36 (KHTML, like Gecko) Chrome/112.0.0.0 Mobile Safari/537.36",WebKit,Chrome,112.0.0.0,AndroidOS,12,20992,img/Andrena_bicolor_70836009_4.jpg,0,response_pred,Andrena bicolor,true,Andrena bicolor,YES YES NO,,PAAaYvTTQZK3jpury1Z68Iz4xVf_MkdqnDH7lX7w0Iu3UM3WHnIzjNSw9A3Yo
,,,,,html-keyboard-response,27,273749,0.0-6.0-0.1,108,1,2023-04-27 11:19:54,01d174b5381169e1ff9a157e8bbbf5c7,,"Mozilla/5.0 (Linux; Android 12; M2102J20SG) AppleWebKit/537.36 (KHTML, like Gecko) Chrome/112.0.0.0 Mobile Safari/537.36",WebKit,Chrome,112.0.0.0,AndroidOS,12,null,"<div style=""font-size:60px;"">+</div>",null,fixation,,,,,,PAAaYvTTQZK3jpury1Z68Iz4xVf_MkdqnDH7lX7w0Iu3UM3WHnIzjNSw9A3Yo
,,,,,image-button-response,28,280906,0.0-6.0-1.1,108,1,2023-04-27 11:19:54,01d174b5381169e1ff9a157e8bbbf5c7,,"Mozilla/5.0 (Linux; Android 12; M2102J20SG) AppleWebKit/537.36 (KHTML, like Gecko) Chrome/112.0.0.0 Mobile Safari/537.36",WebKit,Chrome,112.0.0.0,AndroidOS,12,7114,img/Bombus_pratorum_58000679_1.jpg,4,response_pred,Bombus pratorum,true,Bombus pratorum,NO YES YES,,PAAaYvTTQZK3jpury1Z68Iz4xVf_MkdqnDH7lX7w0Iu3UM3WHnIzjNSw9A3Yo
,,,,,html-keyboard-response,29,281419,0.0-6.0-0.2,108,1,2023-04-27 11:19:54,01d174b5381169e1ff9a157e8bbbf5c7,,"Mozilla/5.0 (Linux; Android 12; M2102J20SG) AppleWebKit/537.36 (KHTML, like Gecko) Chrome/112.0.0.0 Mobile Safari/537.36",WebKit,Chrome,112.0.0.0,AndroidOS,12,null,"<div style=""font-size:60px;"">+</div>",null,fixation,,,,,,PAAaYvTTQZK3jpury1Z68Iz4xVf_MkdqnDH7lX7w0Iu3UM3WHnIzjNSw9A3Yo
,,,,,image-button-response,30,300384,0.0-6.0-1.2,108,1,2023-04-27 11:19:54,01d174b5381169e1ff9a157e8bbbf5c7,,"Mozilla/5.0 (Linux; Android 12; M2102J20SG) AppleWebKit/537.36 (KHTML, like Gecko) Chrome/112.0.0.0 Mobile Safari/537.36",WebKit,Chrome,112.0.0.0,AndroidOS,12,18927,img/Andrena_fulva_76966123_1.jpg,2,response_pred,Andrena fulva,true,Andrena bicolor,YES YES NO,,PAAaYvTTQZK3jpury1Z68Iz4xVf_MkdqnDH7lX7w0Iu3UM3WHnIzjNSw9A3Yo
,,,,,html-keyboard-response,31,301148,0.0-6.0-0.3,108,1,2023-04-27 11:19:54,01d174b5381169e1ff9a157e8bbbf5c7,,"Mozilla/5.0 (Linux; Android 12; M2102J20SG) AppleWebKit/537.36 (KHTML, like Gecko) Chrome/112.0.0.0 Mobile Safari/537.36",WebKit,Chrome,112.0.0.0,AndroidOS,12,null,"<div style=""font-size:60px;"">+</div>",null,fixation,,,,,,PAAaYvTTQZK3jpury1Z68Iz4xVf_MkdqnDH7lX7w0Iu3UM3WHnIzjNSw9A3Yo
,,,,,image-button-response,32,308799,0.0-6.0-1.3,108,1,2023-04-27 11:19:54,01d174b5381169e1ff9a157e8bbbf5c7,,"Mozilla/5.0 (Linux; Android 12; M2102J20SG) AppleWebKit/537.36 (KHTML, like Gecko) Chrome/112.0.0.0 Mobile Safari/537.36",WebKit,Chrome,112.0.0.0,AndroidOS,12,7607,img/Andrena_fulva_78200707_1.jpg,2,response_pred,Andrena fulva,true,Andrena fulva,NO YES NO,,PAAaYvTTQZK3jpury1Z68Iz4xVf_MkdqnDH7lX7w0Iu3UM3WHnIzjNSw9A3Yo
,,,,,html-keyboard-response,33,309316,0.0-6.0-0.4,108,1,2023-04-27 11:19:54,01d174b5381169e1ff9a157e8bbbf5c7,,"Mozilla/5.0 (Linux; Android 12; M2102J20SG) AppleWebKit/537.36 (KHTML, like Gecko) Chrome/112.0.0.0 Mobile Safari/537.36",WebKit,Chrome,112.0.0.0,AndroidOS,12,null,"<div style=""font-size:60px;"">+</div>",null,fixation,,,,,,PAAaYvTTQZK3jpury1Z68Iz4xVf_MkdqnDH7lX7w0Iu3UM3WHnIzjNSw9A3Yo
,,,,,image-button-response,34,316274,0.0-6.0-1.4,108,1,2023-04-27 11:19:54,01d174b5381169e1ff9a157e8bbbf5c7,,"Mozilla/5.0 (Linux; Android 12; M2102J20SG) AppleWebKit/537.36 (KHTML, like Gecko) Chrome/112.0.0.0 Mobile Safari/537.36",WebKit,Chrome,112.0.0.0,AndroidOS,12,6916,img/Bombus_terrestris_72678063_1.jpg,3,response_pred,Bombus lucorum,true,Bombus lucorum,NO NO YES,,PAAaYvTTQZK3jpury1Z68Iz4xVf_MkdqnDH7lX7w0Iu3UM3WHnIzjNSw9A3Yo
,,,,,html-keyboard-response,35,316786,0.0-6.0-0.5,108,1,2023-04-27 11:19:54,01d174b5381169e1ff9a157e8bbbf5c7,,"Mozilla/5.0 (Linux; Android 12; M2102J20SG) AppleWebKit/537.36 (KHTML, like Gecko) Chrome/112.0.0.0 Mobile Safari/537.36",WebKit,Chrome,112.0.0.0,AndroidOS,12,null,"<div style=""font-size:60px;"">+</div>",null,fixation,,,,,,PAAaYvTTQZK3jpury1Z68Iz4xVf_MkdqnDH7lX7w0Iu3UM3WHnIzjNSw9A3Yo
,,,,,image-button-response,36,323995,0.0-6.0-1.5,108,1,2023-04-27 11:19:54,01d174b5381169e1ff9a157e8bbbf5c7,,"Mozilla/5.0 (Linux; Android 12; M2102J20SG) AppleWebKit/537.36 (KHTML, like Gecko) Chrome/112.0.0.0 Mobile Safari/537.36",WebKit,Chrome,112.0.0.0,AndroidOS,12,7188,img/Bombus_terrestris_72770462_2.jpg,3,response_pred,Bombus lucorum,true,Bombus lucorum,NO NO YES,,PAAaYvTTQZK3jpury1Z68Iz4xVf_MkdqnDH7lX7w0Iu3UM3WHnIzjNSw9A3Yo
,,,,,html-keyboard-response,37,324508,0.0-6.0-0.6,108,1,2023-04-27 11:19:54,01d174b5381169e1ff9a157e8bbbf5c7,,"Mozilla/5.0 (Linux; Android 12; M2102J20SG) AppleWebKit/537.36 (KHTML, like Gecko) Chrome/112.0.0.0 Mobile Safari/537.36",WebKit,Chrome,112.0.0.0,AndroidOS,12,null,"<div style=""font-size:60px;"">+</div>",null,fixation,,,,,,PAAaYvTTQZK3jpury1Z68Iz4xVf_MkdqnDH7lX7w0Iu3UM3WHnIzjNSw9A3Yo
,,,,,image-button-response,38,336146,0.0-6.0-1.6,108,1,2023-04-27 11:19:54,01d174b5381169e1ff9a157e8bbbf5c7,,"Mozilla/5.0 (Linux; Android 12; M2102J20SG) AppleWebKit/537.36 (KHTML, like Gecko) Chrome/112.0.0.0 Mobile Safari/537.36",WebKit,Chrome,112.0.0.0,AndroidOS,12,11593,img/Andrena_bicolor_2799379_1.jpg,0,response_pred,Andrena bicolor,true,Andrena bicolor,YES YES NO,,PAAaYvTTQZK3jpury1Z68Iz4xVf_MkdqnDH7lX7w0Iu3UM3WHnIzjNSw9A3Yo
,,,,,html-keyboard-response,39,336907,0.0-6.0-0.7,108,1,2023-04-27 11:19:54,01d174b5381169e1ff9a157e8bbbf5c7,,"Mozilla/5.0 (Linux; Android 12; M2102J20SG) AppleWebKit/537.36 (KHTML, like Gecko) Chrome/112.0.0.0 Mobile Safari/537.36",WebKit,Chrome,112.0.0.0,AndroidOS,12,null,"<div style=""font-size:60px;"">+</div>",null,fixation,,,,,,PAAaYvTTQZK3jpury1Z68Iz4xVf_MkdqnDH7lX7w0Iu3UM3WHnIzjNSw9A3Yo
,,,,,image-button-response,40,343484,0.0-6.0-1.7,108,1,2023-04-27 11:19:54,01d174b5381169e1ff9a157e8bbbf5c7,,"Mozilla/5.0 (Linux; Android 12; M2102J20SG) AppleWebKit/537.36 (KHTML, like Gecko) Chrome/112.0.0.0 Mobile Safari/537.36",WebKit,Chrome,112.0.0.0,AndroidOS,12,6529,img/Bombus_terrestris_72551957_1.jpg,3,response_pred,Bombus lucorum,true,Bombus lucorum,NO NO YES,,PAAaYvTTQZK3jpury1Z68Iz4xVf_MkdqnDH7lX7w0Iu3UM3WHnIzjNSw9A3Yo
,,,,,html-keyboard-response,41,343995,0.0-6.0-0.8,108,1,2023-04-27 11:19:54,01d174b5381169e1ff9a157e8bbbf5c7,,"Mozilla/5.0 (Linux; Android 12; M2102J20SG) AppleWebKit/537.36 (KHTML, like Gecko) Chrome/112.0.0.0 Mobile Safari/537.36",WebKit,Chrome,112.0.0.0,AndroidOS,12,null,"<div style=""font-size:60px;"">+</div>",null,fixation,,,,,,PAAaYvTTQZK3jpury1Z68Iz4xVf_MkdqnDH7lX7w0Iu3UM3WHnIzjNSw9A3Yo
,,,,,image-button-response,42,350539,0.0-6.0-1.8,108,1,2023-04-27 11:19:54,01d174b5381169e1ff9a157e8bbbf5c7,,"Mozilla/5.0 (Linux; Android 12; M2102J20SG) AppleWebKit/537.36 (KHTML, like Gecko) Chrome/112.0.0.0 Mobile Safari/537.36",WebKit,Chrome,112.0.0.0,AndroidOS,12,6506,img/Andrena_flavipes_77801499_2.jpg,1,response_pred,Andrena flavipes,true,Andrena flavipes,YES NO NO,,PAAaYvTTQZK3jpury1Z68Iz4xVf_MkdqnDH7lX7w0Iu3UM3WHnIzjNSw9A3Yo
,,,,,html-keyboard-response,43,351300,0.0-6.0-0.9,108,1,2023-04-27 11:19:54,01d174b5381169e1ff9a157e8bbbf5c7,,"Mozilla/5.0 (Linux; Android 12; M2102J20SG) AppleWebKit/537.36 (KHTML, like Gecko) Chrome/112.0.0.0 Mobile Safari/537.36",WebKit,Chrome,112.0.0.0,AndroidOS,12,null,"<div style=""font-size:60px;"">+</div>",null,fixation,,,,,,PAAaYvTTQZK3jpury1Z68Iz4xVf_MkdqnDH7lX7w0Iu3UM3WHnIzjNSw9A3Yo
,,,,,image-button-response,44,362535,0.0-6.0-1.9,108,1,2023-04-27 11:19:54,01d174b5381169e1ff9a157e8bbbf5c7,,"Mozilla/5.0 (Linux; Android 12; M2102J20SG) AppleWebKit/537.36 (KHTML, like Gecko) Chrome/112.0.0.0 Mobile Safari/537.36",WebKit,Chrome,112.0.0.0,AndroidOS,12,11187,img/Bombus_terrestris_74551267_1.jpg,3,response_pred,Bombus lucorum,true,Bombus pratorum,NO YES YES,,PAAaYvTTQZK3jpury1Z68Iz4xVf_MkdqnDH7lX7w0Iu3UM3WHnIzjNSw9A3Yo
,,,,,html-button-response,45,372936,0.0-7.0,108,1,2023-04-27 11:19:54,01d174b5381169e1ff9a157e8bbbf5c7,,"Mozilla/5.0 (Linux; Android 12; M2102J20SG) AppleWebKit/537.36 (KHTML, like Gecko) Chrome/112.0.0.0 Mobile Safari/537.36",WebKit,Chrome,112.0.0.0,AndroidOS,12,10388,"<p>Num. trials: 10, out of which 10 were correct.</p>
	      <p>You responded correctly on 100% of the trials.</p>
        <p>Your average response time was 10456ms.</p>
