success,timeout,failed_images,failed_audio,failed_video,trial_type,trial_index,time_elapsed,internal_node_id,run_id,condition,recorded_at,source_code_version,user_agent,device,browser,browser_version,platform,platform_version,rt,response,task,correct_response,correct,pred_class,pred_concept,question_order
TRUE,FALSE,[],[],[],preload,0,955,0.0-0.0,1,1,2023-03-14 13:34:48,27d22b55943edf8b2830e96048e50989,"Mozilla/5.0 (Macintosh; Intel Mac OS X 10_15_7) AppleWebKit/605.1.15 (KHTML, like Gecko) Version/16.1 Safari/605.1.15",Macintosh,Safari,16.1,OS X,10_15_7,,,,,,,,
,,,,,html-button-response,1,3359,0.0-1.0,1,1,2023-03-14 13:34:48,27d22b55943edf8b2830e96048e50989,"Mozilla/5.0 (Macintosh; Intel Mac OS X 10_15_7) AppleWebKit/605.1.15 (KHTML, like Gecko) Version/16.1 Safari/605.1.15",Macintosh,Safari,16.1,OS X,10_15_7,2402,0,,,,,,
,,,,,html-button-response,2,10559,0.0-2.0,1,1,2023-03-14 13:34:48,27d22b55943edf8b2830e96048e50989,"Mozilla/5.0 (Macintosh; Intel Mac OS X 10_15_7) AppleWebKit/605.1.15 (KHTML, like Gecko) Version/16.1 Safari/605.1.15",Macintosh,Safari,16.1,OS X,10_15_7,7198,0,,,,,,
,,,,,html-button-response,3,96847,0.0-3.0,1,1,2023-03-14 13:34:48,27d22b55943edf8b2830e96048e50989,"Mozilla/5.0 (Macintosh; Intel Mac OS X 10_15_7) AppleWebKit/605.1.15 (KHTML, like Gecko) Version/16.1 Safari/605.1.15",Macintosh,Safari,16.1,OS X,10_15_7,86285,0,,,,,,
,,,,,html-keyboard-response,4,98604,0.0-4.0-0.0,1,1,2023-03-14 13:34:48,27d22b55943edf8b2830e96048e50989,"Mozilla/5.0 (Macintosh; Intel Mac OS X 10_15_7) AppleWebKit/605.1.15 (KHTML, like Gecko) Version/16.1 Safari/605.1.15",Macintosh,Safari,16.1,OS X,10_15_7,null,null,fixation,,,,,
,,,,,image-button-response,5,112427,0.0-4.0-1.0,1,1,2023-03-14 13:34:48,27d22b55943edf8b2830e96048e50989,"Mozilla/5.0 (Macintosh; Intel Mac OS X 10_15_7) AppleWebKit/605.1.15 (KHTML, like Gecko) Version/16.1 Safari/605.1.15",Macintosh,Safari,16.1,OS X,10_15_7,13810,4,response_1,Bombus lucorum,TRUE,,,
,,,,,html-keyboard-response,6,113181,0.0-4.0-0.1,1,1,2023-03-14 13:34:48,27d22b55943edf8b2830e96048e50989,"Mozilla/5.0 (Macintosh; Intel Mac OS X 10_15_7) AppleWebKit/605.1.15 (KHTML, like Gecko) Version/16.1 Safari/605.1.15",Macintosh,Safari,16.1,OS X,10_15_7,null,null,fixation,,,,,
,,,,,image-button-response,7,124461,0.0-4.0-1.1,1,1,2023-03-14 13:34:48,27d22b55943edf8b2830e96048e50989,"Mozilla/5.0 (Macintosh; Intel Mac OS X 10_15_7) AppleWebKit/605.1.15 (KHTML, like Gecko) Version/16.1 Safari/605.1.15",Macintosh,Safari,16.1,OS X,10_15_7,11269,0,response_1,Andrena bicolor,TRUE,,,
,,,,,html-keyboard-response,8,124963,0.0-4.0-0.2,1,1,2023-03-14 13:34:48,27d22b55943edf8b2830e96048e50989,"Mozilla/5.0 (Macintosh; Intel Mac OS X 10_15_7) AppleWebKit/605.1.15 (KHTML, like Gecko) Version/16.1 Safari/605.1.15",Macintosh,Safari,16.1,OS X,10_15_7,null,null,fixation,,,,,
,,,,,image-button-response,9,139794,0.0-4.0-1.2,1,1,2023-03-14 13:34:48,27d22b55943edf8b2830e96048e50989,"Mozilla/5.0 (Macintosh; Intel Mac OS X 10_15_7) AppleWebKit/605.1.15 (KHTML, like Gecko) Version/16.1 Safari/605.1.15",Macintosh,Safari,16.1,OS X,10_15_7,14818,4,response_1,Bombus pratorum,FALSE,,,
,,,,,html-keyboard-response,10,140297,0.0-4.0-0.3,1,1,2023-03-14 13:34:48,27d22b55943edf8b2830e96048e50989,"Mozilla/5.0 (Macintosh; Intel Mac OS X 10_15_7) AppleWebKit/605.1.15 (KHTML, like Gecko) Version/16.1 Safari/605.1.15",Macintosh,Safari,16.1,OS X,10_15_7,null,null,fixation,,,,,
,,,,,image-button-response,11,146094,0.0-4.0-1.3,1,1,2023-03-14 13:34:48,27d22b55943edf8b2830e96048e50989,"Mozilla/5.0 (Macintosh; Intel Mac OS X 10_15_7) AppleWebKit/605.1.15 (KHTML, like Gecko) Version/16.1 Safari/605.1.15",Macintosh,Safari,16.1,OS X,10_15_7,5786,1,response_1,Andrena flavipes,TRUE,,,
,,,,,html-keyboard-response,12,146346,0.0-4.0-0.4,1,1,2023-03-14 13:34:48,27d22b55943edf8b2830e96048e50989,"Mozilla/5.0 (Macintosh; Intel Mac OS X 10_15_7) AppleWebKit/605.1.15 (KHTML, like Gecko) Version/16.1 Safari/605.1.15",Macintosh,Safari,16.1,OS X,10_15_7,null,null,fixation,,,,,
,,,,,image-button-response,13,183277,0.0-4.0-1.4,1,1,2023-03-14 13:34:48,27d22b55943edf8b2830e96048e50989,"Mozilla/5.0 (Macintosh; Intel Mac OS X 10_15_7) AppleWebKit/605.1.15 (KHTML, like Gecko) Version/16.1 Safari/605.1.15",Macintosh,Safari,16.1,OS X,10_15_7,36920,4,response_1,Bombus lucorum,TRUE,,,
,,,,,html-keyboard-response,14,183530,0.0-4.0-0.5,1,1,2023-03-14 13:34:48,27d22b55943edf8b2830e96048e50989,"Mozilla/5.0 (Macintosh; Intel Mac OS X 10_15_7) AppleWebKit/605.1.15 (KHTML, like Gecko) Version/16.1 Safari/605.1.15",Macintosh,Safari,16.1,OS X,10_15_7,null,null,fixation,,,,,
,,,,,image-button-response,15,187996,0.0-4.0-1.5,1,1,2023-03-14 13:34:48,27d22b55943edf8b2830e96048e50989,"Mozilla/5.0 (Macintosh; Intel Mac OS X 10_15_7) AppleWebKit/605.1.15 (KHTML, like Gecko) Version/16.1 Safari/605.1.15",Macintosh,Safari,16.1,OS X,10_15_7,4456,5,response_1,Bombus pratorum,TRUE,,,
,,,,,html-button-response,16,192844,0.0-5.0,1,1,2023-03-14 13:34:48,27d22b55943edf8b2830e96048e50989,"Mozilla/5.0 (Macintosh; Intel Mac OS X 10_15_7) AppleWebKit/605.1.15 (KHTML, like Gecko) Version/16.1 Safari/605.1.15",Macintosh,Safari,16.1,OS X,10_15_7,4845,0,,,,,,
,,,,,html-keyboard-response,17,193347,0.0-6.0-0.0,1,1,2023-03-14 13:34:48,27d22b55943edf8b2830e96048e50989,"Mozilla/5.0 (Macintosh; Intel Mac OS X 10_15_7) AppleWebKit/605.1.15 (KHTML, like Gecko) Version/16.1 Safari/605.1.15",Macintosh,Safari,16.1,OS X,10_15_7,null,null,fixation,,,,,
,,,,,image-button-response,18,203627,0.0-6.0-1.0,1,1,2023-03-14 13:34:48,27d22b55943edf8b2830e96048e50989,"Mozilla/5.0 (Macintosh; Intel Mac OS X 10_15_7) AppleWebKit/605.1.15 (KHTML, like Gecko) Version/16.1 Safari/605.1.15",Macintosh,Safari,16.1,OS X,10_15_7,10269,2,response_pred,Andrena fulva,TRUE,Andrena fulva,it is fuzzy dark orange and it has a smooth shiny dark brown texture,
,,,,,html-keyboard-response,19,203881,0.0-6.0-0.1,1,1,2023-03-14 13:34:48,27d22b55943edf8b2830e96048e50989,"Mozilla/5.0 (Macintosh; Intel Mac OS X 10_15_7) AppleWebKit/605.1.15 (KHTML, like Gecko) Version/16.1 Safari/605.1.15",Macintosh,Safari,16.1,OS X,10_15_7,null,null,fixation,,,,,
,,,,,image-button-response,20,232277,0.0-6.0-1.1,1,1,2023-03-14 13:34:48,27d22b55943edf8b2830e96048e50989,"Mozilla/5.0 (Macintosh; Intel Mac OS X 10_15_7) AppleWebKit/605.1.15 (KHTML, like Gecko) Version/16.1 Safari/605.1.15",Macintosh,Safari,16.1,OS X,10_15_7,28386,0,response_pred,Andrena bicolor,TRUE,Andrena bicolor,it is fuzzy dark orange and it has a smooth shiny dark brown texture,
,,,,,html-keyboard-response,21,232780,0.0-6.0-0.2,1,1,2023-03-14 13:34:48,27d22b55943edf8b2830e96048e50989,"Mozilla/5.0 (Macintosh; Intel Mac OS X 10_15_7) AppleWebKit/605.1.15 (KHTML, like Gecko) Version/16.1 Safari/605.1.15",Macintosh,Safari,16.1,OS X,10_15_7,null,null,fixation,,,,,
,,,,,image-button-response,22,240011,0.0-6.0-1.2,1,1,2023-03-14 13:34:48,27d22b55943edf8b2830e96048e50989,"Mozilla/5.0 (Macintosh; Intel Mac OS X 10_15_7) AppleWebKit/605.1.15 (KHTML, like Gecko) Version/16.1 Safari/605.1.15",Macintosh,Safari,16.1,OS X,10_15_7,7215,1,response_pred,Andrena flavipes,TRUE,Andrena flavipes,it has a smooth shiny dark brown texture,
,,,,,html-keyboard-response,23,240514,0.0-6.0-0.3,1,1,2023-03-14 13:34:48,27d22b55943edf8b2830e96048e50989,"Mozilla/5.0 (Macintosh; Intel Mac OS X 10_15_7) AppleWebKit/605.1.15 (KHTML, like Gecko) Version/16.1 Safari/605.1.15",Macintosh,Safari,16.1,OS X,10_15_7,null,null,fixation,,,,,
,,,,,image-button-response,24,250894,0.0-6.0-1.3,1,1,2023-03-14 13:34:48,27d22b55943edf8b2830e96048e50989,"Mozilla/5.0 (Macintosh; Intel Mac OS X 10_15_7) AppleWebKit/605.1.15 (KHTML, like Gecko) Version/16.1 Safari/605.1.15",Macintosh,Safari,16.1,OS X,10_15_7,10370,4,response_pred,Bombus lucorum,TRUE,Bombus hortorum,it has fuzzy yellow and black stripes,
,,,,,html-keyboard-response,25,251147,0.0-6.0-0.4,1,1,2023-03-14 13:34:48,27d22b55943edf8b2830e96048e50989,"Mozilla/5.0 (Macintosh; Intel Mac OS X 10_15_7) AppleWebKit/605.1.15 (KHTML, like Gecko) Version/16.1 Safari/605.1.15",Macintosh,Safari,16.1,OS X,10_15_7,null,null,fixation,,,,,
,,,,,image-button-response,26,271711,0.0-6.0-1.4,1,1,2023-03-14 13:34:48,27d22b55943edf8b2830e96048e50989,"Mozilla/5.0 (Macintosh; Intel Mac OS X 10_15_7) AppleWebKit/605.1.15 (KHTML, like Gecko) Version/16.1 Safari/605.1.15",Macintosh,Safari,16.1,OS X,10_15_7,20551,3,response_pred,Bombus hortorum,TRUE,Bombus pratorum,it has fuzzy yellow and black stripes,
,,,,,html-keyboard-response,27,272214,0.0-6.0-0.5,1,1,2023-03-14 13:34:48,27d22b55943edf8b2830e96048e50989,"Mozilla/5.0 (Macintosh; Intel Mac OS X 10_15_7) AppleWebKit/605.1.15 (KHTML, like Gecko) Version/16.1 Safari/605.1.15",Macintosh,Safari,16.1,OS X,10_15_7,null,null,fixation,,,,,
,,,,,image-button-response,28,279311,0.0-6.0-1.5,1,1,2023-03-14 13:34:48,27d22b55943edf8b2830e96048e50989,"Mozilla/5.0 (Macintosh; Intel Mac OS X 10_15_7) AppleWebKit/605.1.15 (KHTML, like Gecko) Version/16.1 Safari/605.1.15",Macintosh,Safari,16.1,OS X,10_15_7,7086,5,response_pred,Bombus pratorum,TRUE,Bombus lucorum,it has fuzzy yellow and black stripes,
,,,,,html-button-response,29,282360,0.0-7.0,1,1,2023-03-14 13:34:48,27d22b55943edf8b2830e96048e50989,"Mozilla/5.0 (Macintosh; Intel Mac OS X 10_15_7) AppleWebKit/605.1.15 (KHTML, like Gecko) Version/16.1 Safari/605.1.15",Macintosh,Safari,16.1,OS X,10_15_7,3046,0,,,,,,
,,,,,html-keyboard-response,30,282863,0.0-8.0-0.0,1,1,2023-03-14 13:34:48,27d22b55943edf8b2830e96048e50989,"Mozilla/5.0 (Macintosh; Intel Mac OS X 10_15_7) AppleWebKit/605.1.15 (KHTML, like Gecko) Version/16.1 Safari/605.1.15",Macintosh,Safari,16.1,OS X,10_15_7,null,null,fixation,,,,,
,,,,,image-button-response,31,310177,0.0-8.0-1.0,1,1,2023-03-14 13:34:48,27d22b55943edf8b2830e96048e50989,"Mozilla/5.0 (Macintosh; Intel Mac OS X 10_15_7) AppleWebKit/605.1.15 (KHTML, like Gecko) Version/16.1 Safari/605.1.15",Macintosh,Safari,16.1,OS X,10_15_7,27301,1,response_2,Andrena flavipes,TRUE,,,
,,,,,html-keyboard-response,32,310429,0.0-8.0-0.1,1,1,2023-03-14 13:34:48,27d22b55943edf8b2830e96048e50989,"Mozilla/5.0 (Macintosh; Intel Mac OS X 10_15_7) AppleWebKit/605.1.15 (KHTML, like Gecko) Version/16.1 Safari/605.1.15",Macintosh,Safari,16.1,OS X,10_15_7,null,null,fixation,,,,,
,,,,,image-button-response,33,315345,0.0-8.0-1.1,1,1,2023-03-14 13:34:48,27d22b55943edf8b2830e96048e50989,"Mozilla/5.0 (Macintosh; Intel Mac OS X 10_15_7) AppleWebKit/605.1.15 (KHTML, like Gecko) Version/16.1 Safari/605.1.15",Macintosh,Safari,16.1,OS X,10_15_7,4905,3,response_2,Bombus hortorum,TRUE,,,
,,,,,html-keyboard-response,34,316100,0.0-8.0-0.2,1,1,2023-03-14 13:34:48,27d22b55943edf8b2830e96048e50989,"Mozilla/5.0 (Macintosh; Intel Mac OS X 10_15_7) AppleWebKit/605.1.15 (KHTML, like Gecko) Version/16.1 Safari/605.1.15",Macintosh,Safari,16.1,OS X,10_15_7,null,null,fixation,,,,,
,,,,,image-button-response,35,327778,0.0-8.0-1.2,1,1,2023-03-14 13:34:48,27d22b55943edf8b2830e96048e50989,"Mozilla/5.0 (Macintosh; Intel Mac OS X 10_15_7) AppleWebKit/605.1.15 (KHTML, like Gecko) Version/16.1 Safari/605.1.15",Macintosh,Safari,16.1,OS X,10_15_7,11669,0,response_2,Andrena bicolor,TRUE,,,
,,,,,html-keyboard-response,36,328031,0.0-8.0-0.3,1,1,2023-03-14 13:34:48,27d22b55943edf8b2830e96048e50989,"Mozilla/5.0 (Macintosh; Intel Mac OS X 10_15_7) AppleWebKit/605.1.15 (KHTML, like Gecko) Version/16.1 Safari/605.1.15",Macintosh,Safari,16.1,OS X,10_15_7,null,null,fixation,,,,,
,,,,,image-button-response,37,336512,0.0-8.0-1.3,1,1,2023-03-14 13:34:48,27d22b55943edf8b2830e96048e50989,"Mozilla/5.0 (Macintosh; Intel Mac OS X 10_15_7) AppleWebKit/605.1.15 (KHTML, like Gecko) Version/16.1 Safari/605.1.15",Macintosh,Safari,16.1,OS X,10_15_7,8469,5,response_2,Andrena fulva,FALSE,,,
,,,,,html-keyboard-response,38,337014,0.0-8.0-0.4,1,1,2023-03-14 13:34:48,27d22b55943edf8b2830e96048e50989,"Mozilla/5.0 (Macintosh; Intel Mac OS X 10_15_7) AppleWebKit/605.1.15 (KHTML, like Gecko) Version/16.1 Safari/605.1.15",Macintosh,Safari,16.1,OS X,10_15_7,null,null,fixation,,,,,
,,,,,image-button-response,39,343594,0.0-8.0-1.4,1,1,2023-03-14 13:34:48,27d22b55943edf8b2830e96048e50989,"Mozilla/5.0 (Macintosh; Intel Mac OS X 10_15_7) AppleWebKit/605.1.15 (KHTML, like Gecko) Version/16.1 Safari/605.1.15",Macintosh,Safari,16.1,OS X,10_15_7,6571,3,response_2,Bombus hortorum,TRUE,,,
,,,,,html-keyboard-response,40,344097,0.0-8.0-0.5,1,1,2023-03-14 13:34:48,27d22b55943edf8b2830e96048e50989,"Mozilla/5.0 (Macintosh; Intel Mac OS X 10_15_7) AppleWebKit/605.1.15 (KHTML, like Gecko) Version/16.1 Safari/605.1.15",Macintosh,Safari,16.1,OS X,10_15_7,null,null,fixation,,,,,
,,,,,image-button-response,41,350794,0.0-8.0-1.5,1,1,2023-03-14 13:34:48,27d22b55943edf8b2830e96048e50989,"Mozilla/5.0 (Macintosh; Intel Mac OS X 10_15_7) AppleWebKit/605.1.15 (KHTML, like Gecko) Version/16.1 Safari/605.1.15",Macintosh,Safari,16.1,OS X,10_15_7,6686,2,response_2,Andrena fulva,TRUE,,,
,,,,,html-button-response,42,352260,0.0-9.0,1,1,2023-03-14 13:34:48,27d22b55943edf8b2830e96048e50989,"Mozilla/5.0 (Macintosh; Intel Mac OS X 10_15_7) AppleWebKit/605.1.15 (KHTML, like Gecko) Version/16.1 Safari/605.1.15",Macintosh,Safari,16.1,OS X,10_15_7,1463,0,,,,,,
,,,,,survey-multi-choice,43,383484,0.0-10.0,1,1,2023-03-14 13:34:48,27d22b55943edf8b2830e96048e50989,"Mozilla/5.0 (Macintosh; Intel Mac OS X 10_15_7) AppleWebKit/605.1.15 (KHTML, like Gecko) Version/16.1 Safari/605.1.15",Macintosh,Safari,16.1,OS X,10_15_7,31219,"{""support_exp"":""strongly agree"",""causal_exp"":""strongly agree"",""know_exp"":""strongly agree"",""understand_exp"":""strongly agree""}",,,,,,"[0,1,2,3]"
,,,,,html-button-response,44,384728,0.0-11.0,1,1,2023-03-14 13:34:48,27d22b55943edf8b2830e96048e50989,"Mozilla/5.0 (Macintosh; Intel Mac OS X 10_15_7) AppleWebKit/605.1.15 (KHTML, like Gecko) Version/16.1 Safari/605.1.15",Macintosh,Safari,16.1,OS X,10_15_7,1241,0,,,,,,
TRUE,FALSE,[],[],[],preload,0,329,0.0-0.0,10,1,2023-03-14 19:11:28,27d22b55943edf8b2830e96048e50989,"Mozilla/5.0 (Macintosh; Intel Mac OS X 10_15_7) AppleWebKit/605.1.15 (KHTML, like Gecko) Version/16.3 Safari/605.1.15",Macintosh,Safari,16.3,OS X,10_15_7,,,,,,,,
,,,,,html-button-response,1,1268,0.0-1.0,10,1,2023-03-14 19:11:28,27d22b55943edf8b2830e96048e50989,"Mozilla/5.0 (Macintosh; Intel Mac OS X 10_15_7) AppleWebKit/605.1.15 (KHTML, like Gecko) Version/16.3 Safari/605.1.15",Macintosh,Safari,16.3,OS X,10_15_7,937,0,,,,,,
,,,,,html-button-response,2,2522,0.0-2.0,10,1,2023-03-14 19:11:28,27d22b55943edf8b2830e96048e50989,"Mozilla/5.0 (Macintosh; Intel Mac OS X 10_15_7) AppleWebKit/605.1.15 (KHTML, like Gecko) Version/16.3 Safari/605.1.15",Macintosh,Safari,16.3,OS X,10_15_7,1253,0,,,,,,
,,,,,html-button-response,3,140636,0.0-3.0,10,1,2023-03-14 19:11:28,27d22b55943edf8b2830e96048e50989,"Mozilla/5.0 (Macintosh; Intel Mac OS X 10_15_7) AppleWebKit/605.1.15 (KHTML, like Gecko) Version/16.3 Safari/605.1.15",Macintosh,Safari,16.3,OS X,10_15_7,138114,0,,,,,,
,,,,,html-keyboard-response,4,142143,0.0-4.0-0.0,10,1,2023-03-14 19:11:28,27d22b55943edf8b2830e96048e50989,"Mozilla/5.0 (Macintosh; Intel Mac OS X 10_15_7) AppleWebKit/605.1.15 (KHTML, like Gecko) Version/16.3 Safari/605.1.15",Macintosh,Safari,16.3,OS X,10_15_7,null,null,fixation,,,,,
,,,,,image-button-response,5,186286,0.0-4.0-1.0,10,1,2023-03-14 19:11:28,27d22b55943edf8b2830e96048e50989,"Mozilla/5.0 (Macintosh; Intel Mac OS X 10_15_7) AppleWebKit/605.1.15 (KHTML, like Gecko) Version/16.3 Safari/605.1.15",Macintosh,Safari,16.3,OS X,10_15_7,44126,2,response_1,Bombus lucorum,FALSE,,,
,,,,,html-keyboard-response,6,187039,0.0-4.0-0.1,10,1,2023-03-14 19:11:28,27d22b55943edf8b2830e96048e50989,"Mozilla/5.0 (Macintosh; Intel Mac OS X 10_15_7) AppleWebKit/605.1.15 (KHTML, like Gecko) Version/16.3 Safari/605.1.15",Macintosh,Safari,16.3,OS X,10_15_7,null,null,fixation,,,,,
,,,,,image-button-response,7,204269,0.0-4.0-1.1,10,1,2023-03-14 19:11:28,27d22b55943edf8b2830e96048e50989,"Mozilla/5.0 (Macintosh; Intel Mac OS X 10_15_7) AppleWebKit/605.1.15 (KHTML, like Gecko) Version/16.3 Safari/605.1.15",Macintosh,Safari,16.3,OS X,10_15_7,17214,2,response_1,Andrena fulva,TRUE,,,
,,,,,html-keyboard-response,8,205022,0.0-4.0-0.2,10,1,2023-03-14 19:11:28,27d22b55943edf8b2830e96048e50989,"Mozilla/5.0 (Macintosh; Intel Mac OS X 10_15_7) AppleWebKit/605.1.15 (KHTML, like Gecko) Version/16.3 Safari/605.1.15",Macintosh,Safari,16.3,OS X,10_15_7,null,null,fixation,,,,,
,,,,,image-button-response,9,214684,0.0-4.0-1.2,10,1,2023-03-14 19:11:28,27d22b55943edf8b2830e96048e50989,"Mozilla/5.0 (Macintosh; Intel Mac OS X 10_15_7) AppleWebKit/605.1.15 (KHTML, like Gecko) Version/16.3 Safari/605.1.15",Macintosh,Safari,16.3,OS X,10_15_7,9644,3,response_1,Andrena fulva,FALSE,,,
,,,,,html-keyboard-response,10,215188,0.0-4.0-0.3,10,1,2023-03-14 19:11:28,27d22b55943edf8b2830e96048e50989,"Mozilla/5.0 (Macintosh; Intel Mac OS X 10_15_7) AppleWebKit/605.1.15 (KHTML, like Gecko) Version/16.3 Safari/605.1.15",Macintosh,Safari,16.3,OS X,10_15_7,null,null,fixation,,,,,
,,,,,image-button-response,11,226369,0.0-4.0-1.3,10,1,2023-03-14 19:11:28,27d22b55943edf8b2830e96048e50989,"Mozilla/5.0 (Macintosh; Intel Mac OS X 10_15_7) AppleWebKit/605.1.15 (KHTML, like Gecko) Version/16.3 Safari/605.1.15",Macintosh,Safari,16.3,OS X,10_15_7,11168,1,response_1,Andrena flavipes,TRUE,,,
,,,,,html-keyboard-response,12,226622,0.0-4.0-0.4,10,1,2023-03-14 19:11:28,27d22b55943edf8b2830e96048e50989,"Mozilla/5.0 (Macintosh; Intel Mac OS X 10_15_7) AppleWebKit/605.1.15 (KHTML, like Gecko) Version/16.3 Safari/605.1.15",Macintosh,Safari,16.3,OS X,10_15_7,null,null,fixation,,,,,
,,,,,image-button-response,13,266102,0.0-4.0-1.4,10,1,2023-03-14 19:11:28,27d22b55943edf8b2830e96048e50989,"Mozilla/5.0 (Macintosh; Intel Mac OS X 10_15_7) AppleWebKit/605.1.15 (KHTML, like Gecko) Version/16.3 Safari/605.1.15",Macintosh,Safari,16.3,OS X,10_15_7,39465,1,response_1,Andrena flavipes,TRUE,,,
,,,,,html-keyboard-response,14,266606,0.0-4.0-0.5,10,1,2023-03-14 19:11:28,27d22b55943edf8b2830e96048e50989,"Mozilla/5.0 (Macintosh; Intel Mac OS X 10_15_7) AppleWebKit/605.1.15 (KHTML, like Gecko) Version/16.3 Safari/605.1.15",Macintosh,Safari,16.3,OS X,10_15_7,null,null,fixation,,,,,
,,,,,image-button-response,15,279884,0.0-4.0-1.5,10,1,2023-03-14 19:11:28,27d22b55943edf8b2830e96048e50989,"Mozilla/5.0 (Macintosh; Intel Mac OS X 10_15_7) AppleWebKit/605.1.15 (KHTML, like Gecko) Version/16.3 Safari/605.1.15",Macintosh,Safari,16.3,OS X,10_15_7,13260,4,response_1,Bombus pratorum,FALSE,,,
,,,,,html-button-response,16,288602,0.0-5.0,10,1,2023-03-14 19:11:28,27d22b55943edf8b2830e96048e50989,"Mozilla/5.0 (Macintosh; Intel Mac OS X 10_15_7) AppleWebKit/605.1.15 (KHTML, like Gecko) Version/16.3 Safari/605.1.15",Macintosh,Safari,16.3,OS X,10_15_7,8714,0,,,,,,
,,,,,html-keyboard-response,17,289357,0.0-6.0-0.0,10,1,2023-03-14 19:11:28,27d22b55943edf8b2830e96048e50989,"Mozilla/5.0 (Macintosh; Intel Mac OS X 10_15_7) AppleWebKit/605.1.15 (KHTML, like Gecko) Version/16.3 Safari/605.1.15",Macintosh,Safari,16.3,OS X,10_15_7,null,null,fixation,,,,,
,,,,,image-button-response,18,315734,0.0-6.0-1.0,10,1,2023-03-14 19:11:28,27d22b55943edf8b2830e96048e50989,"Mozilla/5.0 (Macintosh; Intel Mac OS X 10_15_7) AppleWebKit/605.1.15 (KHTML, like Gecko) Version/16.3 Safari/605.1.15",Macintosh,Safari,16.3,OS X,10_15_7,26357,5,response_pred,Bombus hortorum,FALSE,Bombus pratorum,it has fuzzy yellow and black stripes,
,,,,,html-keyboard-response,19,315989,0.0-6.0-0.1,10,1,2023-03-14 19:11:28,27d22b55943edf8b2830e96048e50989,"Mozilla/5.0 (Macintosh; Intel Mac OS X 10_15_7) AppleWebKit/605.1.15 (KHTML, like Gecko) Version/16.3 Safari/605.1.15",Macintosh,Safari,16.3,OS X,10_15_7,null,null,fixation,,,,,
,,,,,image-button-response,20,339368,0.0-6.0-1.1,10,1,2023-03-14 19:11:28,27d22b55943edf8b2830e96048e50989,"Mozilla/5.0 (Macintosh; Intel Mac OS X 10_15_7) AppleWebKit/605.1.15 (KHTML, like Gecko) Version/16.3 Safari/605.1.15",Macintosh,Safari,16.3,OS X,10_15_7,23351,3,response_pred,Andrena flavipes,FALSE,Andrena flavipes,it has a smooth shiny dark brown texture,
,,,,,html-keyboard-response,21,339873,0.0-6.0-0.2,10,1,2023-03-14 19:11:28,27d22b55943edf8b2830e96048e50989,"Mozilla/5.0 (Macintosh; Intel Mac OS X 10_15_7) AppleWebKit/605.1.15 (KHTML, like Gecko) Version/16.3 Safari/605.1.15",Macintosh,Safari,16.3,OS X,10_15_7,null,null,fixation,,,,,
,,,,,image-button-response,22,349684,0.0-6.0-1.2,10,1,2023-03-14 19:11:28,27d22b55943edf8b2830e96048e50989,"Mozilla/5.0 (Macintosh; Intel Mac OS X 10_15_7) AppleWebKit/605.1.15 (KHTML, like Gecko) Version/16.3 Safari/605.1.15",Macintosh,Safari,16.3,OS X,10_15_7,9800,5,response_pred,Bombus pratorum,TRUE,Bombus lucorum,it has fuzzy yellow and black stripes,
,,,,,html-keyboard-response,23,350188,0.0-6.0-0.3,10,1,2023-03-14 19:11:28,27d22b55943edf8b2830e96048e50989,"Mozilla/5.0 (Macintosh; Intel Mac OS X 10_15_7) AppleWebKit/605.1.15 (KHTML, like Gecko) Version/16.3 Safari/605.1.15",Macintosh,Safari,16.3,OS X,10_15_7,null,null,fixation,,,,,
,,,,,image-button-response,24,361519,0.0-6.0-1.3,10,1,2023-03-14 19:11:28,27d22b55943edf8b2830e96048e50989,"Mozilla/5.0 (Macintosh; Intel Mac OS X 10_15_7) AppleWebKit/605.1.15 (KHTML, like Gecko) Version/16.3 Safari/605.1.15",Macintosh,Safari,16.3,OS X,10_15_7,11319,2,response_pred,Andrena fulva,TRUE,Andrena fulva,it is fuzzy dark orange and it has a smooth shiny dark brown texture,
,,,,,html-keyboard-response,25,362022,0.0-6.0-0.4,10,1,2023-03-14 19:11:28,27d22b55943edf8b2830e96048e50989,"Mozilla/5.0 (Macintosh; Intel Mac OS X 10_15_7) AppleWebKit/605.1.15 (KHTML, like Gecko) Version/16.3 Safari/605.1.15",Macintosh,Safari,16.3,OS X,10_15_7,null,null,fixation,,,,,
,,,,,image-button-response,26,374217,0.0-6.0-1.4,10,1,2023-03-14 19:11:28,27d22b55943edf8b2830e96048e50989,"Mozilla/5.0 (Macintosh; Intel Mac OS X 10_15_7) AppleWebKit/605.1.15 (KHTML, like Gecko) Version/16.3 Safari/605.1.15",Macintosh,Safari,16.3,OS X,10_15_7,12180,0,response_pred,Andrena bicolor,TRUE,Andrena bicolor,it is fuzzy dark orange and it has a smooth shiny dark brown texture,
,,,,,html-keyboard-response,27,374721,0.0-6.0-0.5,10,1,2023-03-14 19:11:28,27d22b55943edf8b2830e96048e50989,"Mozilla/5.0 (Macintosh; Intel Mac OS X 10_15_7) AppleWebKit/605.1.15 (KHTML, like Gecko) Version/16.3 Safari/605.1.15",Macintosh,Safari,16.3,OS X,10_15_7,null,null,fixation,,,,,
,,,,,image-button-response,28,384132,0.0-6.0-1.5,10,1,2023-03-14 19:11:28,27d22b55943edf8b2830e96048e50989,"Mozilla/5.0 (Macintosh; Intel Mac OS X 10_15_7) AppleWebKit/605.1.15 (KHTML, like Gecko) Version/16.3 Safari/605.1.15",Macintosh,Safari,16.3,OS X,10_15_7,9394,4,response_pred,Bombus lucorum,TRUE,Bombus hortorum,it has fuzzy yellow and black stripes,
,,,,,html-button-response,29,392869,0.0-7.0,10,1,2023-03-14 19:11:28,27d22b55943edf8b2830e96048e50989,"Mozilla/5.0 (Macintosh; Intel Mac OS X 10_15_7) AppleWebKit/605.1.15 (KHTML, like Gecko) Version/16.3 Safari/605.1.15",Macintosh,Safari,16.3,OS X,10_15_7,8733,0,,,,,,
,,,,,html-keyboard-response,30,393372,0.0-8.0-0.0,10,1,2023-03-14 19:11:28,27d22b55943edf8b2830e96048e50989,"Mozilla/5.0 (Macintosh; Intel Mac OS X 10_15_7) AppleWebKit/605.1.15 (KHTML, like Gecko) Version/16.3 Safari/605.1.15",Macintosh,Safari,16.3,OS X,10_15_7,null,null,fixation,,,,,
,,,,,image-button-response,31,413800,0.0-8.0-1.0,10,1,2023-03-14 19:11:28,27d22b55943edf8b2830e96048e50989,"Mozilla/5.0 (Macintosh; Intel Mac OS X 10_15_7) AppleWebKit/605.1.15 (KHTML, like Gecko) Version/16.3 Safari/605.1.15",Macintosh,Safari,16.3,OS X,10_15_7,20411,3,response_2,Bombus hortorum,TRUE,,,
,,,,,html-keyboard-response,32,414304,0.0-8.0-0.1,10,1,2023-03-14 19:11:28,27d22b55943edf8b2830e96048e50989,"Mozilla/5.0 (Macintosh; Intel Mac OS X 10_15_7) AppleWebKit/605.1.15 (KHTML, like Gecko) Version/16.3 Safari/605.1.15",Macintosh,Safari,16.3,OS X,10_15_7,null,null,fixation,,,,,
,,,,,image-button-response,33,432967,0.0-8.0-1.1,10,1,2023-03-14 19:11:28,27d22b55943edf8b2830e96048e50989,"Mozilla/5.0 (Macintosh; Intel Mac OS X 10_15_7) AppleWebKit/605.1.15 (KHTML, like Gecko) Version/16.3 Safari/605.1.15",Macintosh,Safari,16.3,OS X,10_15_7,18645,5,response_2,Bombus lucorum,FALSE,,,
,,,,,html-keyboard-response,34,433221,0.0-8.0-0.2,10,1,2023-03-14 19:11:28,27d22b55943edf8b2830e96048e50989,"Mozilla/5.0 (Macintosh; Intel Mac OS X 10_15_7) AppleWebKit/605.1.15 (KHTML, like Gecko) Version/16.3 Safari/605.1.15",Macintosh,Safari,16.3,OS X,10_15_7,null,null,fixation,,,,,
,,,,,image-button-response,35,441950,0.0-8.0-1.2,10,1,2023-03-14 19:11:28,27d22b55943edf8b2830e96048e50989,"Mozilla/5.0 (Macintosh; Intel Mac OS X 10_15_7) AppleWebKit/605.1.15 (KHTML, like Gecko) Version/16.3 Safari/605.1.15",Macintosh,Safari,16.3,OS X,10_15_7,8715,0,response_2,Andrena bicolor,TRUE,,,
,,,,,html-keyboard-response,36,442455,0.0-8.0-0.3,10,1,2023-03-14 19:11:28,27d22b55943edf8b2830e96048e50989,"Mozilla/5.0 (Macintosh; Intel Mac OS X 10_15_7) AppleWebKit/605.1.15 (KHTML, like Gecko) Version/16.3 Safari/605.1.15",Macintosh,Safari,16.3,OS X,10_15_7,null,null,fixation,,,,,
,,,,,image-button-response,37,457067,0.0-8.0-1.3,10,1,2023-03-14 19:11:28,27d22b55943edf8b2830e96048e50989,"Mozilla/5.0 (Macintosh; Intel Mac OS X 10_15_7) AppleWebKit/605.1.15 (KHTML, like Gecko) Version/16.3 Safari/605.1.15",Macintosh,Safari,16.3,OS X,10_15_7,14599,5,response_2,Bombus hortorum,FALSE,,,
,,,,,html-keyboard-response,38,457321,0.0-8.0-0.4,10,1,2023-03-14 19:11:28,27d22b55943edf8b2830e96048e50989,"Mozilla/5.0 (Macintosh; Intel Mac OS X 10_15_7) AppleWebKit/605.1.15 (KHTML, like Gecko) Version/16.3 Safari/605.1.15",Macintosh,Safari,16.3,OS X,10_15_7,null,null,fixation,,,,,
,,,,,image-button-response,39,469934,0.0-8.0-1.4,10,1,2023-03-14 19:11:28,27d22b55943edf8b2830e96048e50989,"Mozilla/5.0 (Macintosh; Intel Mac OS X 10_15_7) AppleWebKit/605.1.15 (KHTML, like Gecko) Version/16.3 Safari/605.1.15",Macintosh,Safari,16.3,OS X,10_15_7,12600,0,response_2,Andrena bicolor,TRUE,,,
,,,,,html-keyboard-response,40,470687,0.0-8.0-0.5,10,1,2023-03-14 19:11:28,27d22b55943edf8b2830e96048e50989,"Mozilla/5.0 (Macintosh; Intel Mac OS X 10_15_7) AppleWebKit/605.1.15 (KHTML, like Gecko) Version/16.3 Safari/605.1.15",Macintosh,Safari,16.3,OS X,10_15_7,null,null,fixation,,,,,
,,,,,image-button-response,41,490766,0.0-8.0-1.5,10,1,2023-03-14 19:11:28,27d22b55943edf8b2830e96048e50989,"Mozilla/5.0 (Macintosh; Intel Mac OS X 10_15_7) AppleWebKit/605.1.15 (KHTML, like Gecko) Version/16.3 Safari/605.1.15",Macintosh,Safari,16.3,OS X,10_15_7,20068,5,response_2,Bombus pratorum,TRUE,,,
,,,,,html-button-response,42,492585,0.0-9.0,10,1,2023-03-14 19:11:28,27d22b55943edf8b2830e96048e50989,"Mozilla/5.0 (Macintosh; Intel Mac OS X 10_15_7) AppleWebKit/605.1.15 (KHTML, like Gecko) Version/16.3 Safari/605.1.15",Macintosh,Safari,16.3,OS X,10_15_7,1815,0,,,,,,
,,,,,survey-multi-choice,43,530239,0.0-10.0,10,1,2023-03-14 19:11:28,27d22b55943edf8b2830e96048e50989,"Mozilla/5.0 (Macintosh; Intel Mac OS X 10_15_7) AppleWebKit/605.1.15 (KHTML, like Gecko) Version/16.3 Safari/605.1.15",Macintosh,Safari,16.3,OS X,10_15_7,37650,"{""support_exp"":""strongly agree"",""causal_exp"":""strongly agree"",""know_exp"":""strongly agree"",""understand_exp"":""strongly agree""}",,,,,,"[0,1,2,3]"
,,,,,html-button-response,44,531400,0.0-11.0,10,1,2023-03-14 19:11:28,27d22b55943edf8b2830e96048e50989,"Mozilla/5.0 (Macintosh; Intel Mac OS X 10_15_7) AppleWebKit/605.1.15 (KHTML, like Gecko) Version/16.3 Safari/605.1.15",Macintosh,Safari,16.3,OS X,10_15_7,1145,0,,,,,,
TRUE,FALSE,[],[],[],preload,0,4042,0.0-0.0,13,1,2023-03-14 19:54:02,27d22b55943edf8b2830e96048e50989,Mozilla/5.0 (Macintosh; Intel Mac OS X 10.15; rv:109.0) Gecko/20100101 Firefox/110.0,Macintosh,Firefox,110,OS X,10.15,,,,,,,,
,,,,,html-button-response,1,10581,0.0-1.0,13,1,2023-03-14 19:54:02,27d22b55943edf8b2830e96048e50989,Mozilla/5.0 (Macintosh; Intel Mac OS X 10.15; rv:109.0) Gecko/20100101 Firefox/110.0,Macintosh,Firefox,110,OS X,10.15,6537,0,,,,,,
,,,,,html-button-response,2,69939,0.0-2.0,13,1,2023-03-14 19:54:02,27d22b55943edf8b2830e96048e50989,Mozilla/5.0 (Macintosh; Intel Mac OS X 10.15; rv:109.0) Gecko/20100101 Firefox/110.0,Macintosh,Firefox,110,OS X,10.15,59356,0,,,,,,
,,,,,html-button-response,3,208169,0.0-3.0,13,1,2023-03-14 19:54:02,27d22b55943edf8b2830e96048e50989,Mozilla/5.0 (Macintosh; Intel Mac OS X 10.15; rv:109.0) Gecko/20100101 Firefox/110.0,Macintosh,Firefox,110,OS X,10.15,138225,0,,,,,,
,,,,,html-keyboard-response,4,209685,0.0-4.0-0.0,13,1,2023-03-14 19:54:02,27d22b55943edf8b2830e96048e50989,Mozilla/5.0 (Macintosh; Intel Mac OS X 10.15; rv:109.0) Gecko/20100101 Firefox/110.0,Macintosh,Firefox,110,OS X,10.15,null,null,fixation,,,,,
,,,,,image-button-response,5,240268,0.0-4.0-1.0,13,1,2023-03-14 19:54:02,27d22b55943edf8b2830e96048e50989,Mozilla/5.0 (Macintosh; Intel Mac OS X 10.15; rv:109.0) Gecko/20100101 Firefox/110.0,Macintosh,Firefox,110,OS X,10.15,30543,1,response_1,Andrena flavipes,TRUE,,,
,,,,,html-keyboard-response,6,240776,0.0-4.0-0.1,13,1,2023-03-14 19:54:02,27d22b55943edf8b2830e96048e50989,Mozilla/5.0 (Macintosh; Intel Mac OS X 10.15; rv:109.0) Gecko/20100101 Firefox/110.0,Macintosh,Firefox,110,OS X,10.15,null,null,fixation,,,,,
,,,,,image-button-response,7,265055,0.0-4.0-1.1,13,1,2023-03-14 19:54:02,27d22b55943edf8b2830e96048e50989,Mozilla/5.0 (Macintosh; Intel Mac OS X 10.15; rv:109.0) Gecko/20100101 Firefox/110.0,Macintosh,Firefox,110,OS X,10.15,24268,3,response_1,Andrena fulva,FALSE,,,
,,,,,html-keyboard-response,8,265813,0.0-4.0-0.2,13,1,2023-03-14 19:54:02,27d22b55943edf8b2830e96048e50989,Mozilla/5.0 (Macintosh; Intel Mac OS X 10.15; rv:109.0) Gecko/20100101 Firefox/110.0,Macintosh,Firefox,110,OS X,10.15,null,null,fixation,,,,,
,,,,,image-button-response,9,273468,0.0-4.0-1.2,13,1,2023-03-14 19:54:02,27d22b55943edf8b2830e96048e50989,Mozilla/5.0 (Macintosh; Intel Mac OS X 10.15; rv:109.0) Gecko/20100101 Firefox/110.0,Macintosh,Firefox,110,OS X,10.15,7647,4,response_1,Bombus hortorum,FALSE,,,
,,,,,html-keyboard-response,10,273974,0.0-4.0-0.3,13,1,2023-03-14 19:54:02,27d22b55943edf8b2830e96048e50989,Mozilla/5.0 (Macintosh; Intel Mac OS X 10.15; rv:109.0) Gecko/20100101 Firefox/110.0,Macintosh,Firefox,110,OS X,10.15,null,null,fixation,,,,,
,,,,,image-button-response,11,287857,0.0-4.0-1.3,13,1,2023-03-14 19:54:02,27d22b55943edf8b2830e96048e50989,Mozilla/5.0 (Macintosh; Intel Mac OS X 10.15; rv:109.0) Gecko/20100101 Firefox/110.0,Macintosh,Firefox,110,OS X,10.15,13873,0,response_1,Andrena bicolor,TRUE,,,
,,,,,html-keyboard-response,12,288114,0.0-4.0-0.4,13,1,2023-03-14 19:54:02,27d22b55943edf8b2830e96048e50989,Mozilla/5.0 (Macintosh; Intel Mac OS X 10.15; rv:109.0) Gecko/20100101 Firefox/110.0,Macintosh,Firefox,110,OS X,10.15,null,null,fixation,,,,,
,,,,,image-button-response,13,301231,0.0-4.0-1.4,13,1,2023-03-14 19:54:02,27d22b55943edf8b2830e96048e50989,Mozilla/5.0 (Macintosh; Intel Mac OS X 10.15; rv:109.0) Gecko/20100101 Firefox/110.0,Macintosh,Firefox,110,OS X,10.15,13109,5,response_1,Bombus pratorum,TRUE,,,
,,,,,html-keyboard-response,14,301739,0.0-4.0-0.5,13,1,2023-03-14 19:54:02,27d22b55943edf8b2830e96048e50989,Mozilla/5.0 (Macintosh; Intel Mac OS X 10.15; rv:109.0) Gecko/20100101 Firefox/110.0,Macintosh,Firefox,110,OS X,10.15,null,null,fixation,,,,,
,,,,,image-button-response,15,310170,0.0-4.0-1.5,13,1,2023-03-14 19:54:02,27d22b55943edf8b2830e96048e50989,Mozilla/5.0 (Macintosh; Intel Mac OS X 10.15; rv:109.0) Gecko/20100101 Firefox/110.0,Macintosh,Firefox,110,OS X,10.15,8425,5,response_1,Bombus pratorum,TRUE,,,
,,,,,html-button-response,16,328509,0.0-5.0,13,1,2023-03-14 19:54:02,27d22b55943edf8b2830e96048e50989,Mozilla/5.0 (Macintosh; Intel Mac OS X 10.15; rv:109.0) Gecko/20100101 Firefox/110.0,Macintosh,Firefox,110,OS X,10.15,18336,0,,,,,,
,,,,,html-keyboard-response,17,329014,0.0-6.0-0.0,13,1,2023-03-14 19:54:02,27d22b55943edf8b2830e96048e50989,Mozilla/5.0 (Macintosh; Intel Mac OS X 10.15; rv:109.0) Gecko/20100101 Firefox/110.0,Macintosh,Firefox,110,OS X,10.15,null,null,fixation,,,,,
,,,,,image-button-response,18,364937,0.0-6.0-1.0,13,1,2023-03-14 19:54:02,27d22b55943edf8b2830e96048e50989,Mozilla/5.0 (Macintosh; Intel Mac OS X 10.15; rv:109.0) Gecko/20100101 Firefox/110.0,Macintosh,Firefox,110,OS X,10.15,35913,4,response_pred,Bombus lucorum,TRUE,Bombus hortorum,it has fuzzy yellow and black stripes,
,,,,,html-keyboard-response,19,365443,0.0-6.0-0.1,13,1,2023-03-14 19:54:02,27d22b55943edf8b2830e96048e50989,Mozilla/5.0 (Macintosh; Intel Mac OS X 10.15; rv:109.0) Gecko/20100101 Firefox/110.0,Macintosh,Firefox,110,OS X,10.15,null,null,fixation,,,,,
,,,,,image-button-response,20,396467,0.0-6.0-1.1,13,1,2023-03-14 19:54:02,27d22b55943edf8b2830e96048e50989,Mozilla/5.0 (Macintosh; Intel Mac OS X 10.15; rv:109.0) Gecko/20100101 Firefox/110.0,Macintosh,Firefox,110,OS X,10.15,31017,0,response_pred,Andrena bicolor,TRUE,Andrena bicolor,it is fuzzy dark orange and it has a smooth shiny dark brown texture,
,,,,,html-keyboard-response,21,397223,0.0-6.0-0.2,13,1,2023-03-14 19:54:02,27d22b55943edf8b2830e96048e50989,Mozilla/5.0 (Macintosh; Intel Mac OS X 10.15; rv:109.0) Gecko/20100101 Firefox/110.0,Macintosh,Firefox,110,OS X,10.15,null,null,fixation,,,,,
,,,,,image-button-response,22,405290,0.0-6.0-1.2,13,1,2023-03-14 19:54:02,27d22b55943edf8b2830e96048e50989,Mozilla/5.0 (Macintosh; Intel Mac OS X 10.15; rv:109.0) Gecko/20100101 Firefox/110.0,Macintosh,Firefox,110,OS X,10.15,8059,2,response_pred,Andrena fulva,TRUE,Andrena fulva,it is fuzzy dark orange and it has a smooth shiny dark brown texture,
,,,,,html-keyboard-response,23,405548,0.0-6.0-0.3,13,1,2023-03-14 19:54:02,27d22b55943edf8b2830e96048e50989,Mozilla/5.0 (Macintosh; Intel Mac OS X 10.15; rv:109.0) Gecko/20100101 Firefox/110.0,Macintosh,Firefox,110,OS X,10.15,null,null,fixation,,,,,
,,,,,image-button-response,24,419577,0.0-6.0-1.3,13,1,2023-03-14 19:54:02,27d22b55943edf8b2830e96048e50989,Mozilla/5.0 (Macintosh; Intel Mac OS X 10.15; rv:109.0) Gecko/20100101 Firefox/110.0,Macintosh,Firefox,110,OS X,10.15,14023,4,response_pred,Bombus pratorum,FALSE,Bombus lucorum,it has fuzzy yellow and black stripes,
,,,,,html-keyboard-response,25,419834,0.0-6.0-0.4,13,1,2023-03-14 19:54:02,27d22b55943edf8b2830e96048e50989,Mozilla/5.0 (Macintosh; Intel Mac OS X 10.15; rv:109.0) Gecko/20100101 Firefox/110.0,Macintosh,Firefox,110,OS X,10.15,null,null,fixation,,,,,
,,,,,image-button-response,26,451922,0.0-6.0-1.4,13,1,2023-03-14 19:54:02,27d22b55943edf8b2830e96048e50989,Mozilla/5.0 (Macintosh; Intel Mac OS X 10.15; rv:109.0) Gecko/20100101 Firefox/110.0,Macintosh,Firefox,110,OS X,10.15,32071,1,response_pred,Andrena flavipes,TRUE,Andrena flavipes,it has a smooth shiny dark brown texture,
,,,,,html-keyboard-response,27,452680,0.0-6.0-0.5,13,1,2023-03-14 19:54:02,27d22b55943edf8b2830e96048e50989,Mozilla/5.0 (Macintosh; Intel Mac OS X 10.15; rv:109.0) Gecko/20100101 Firefox/110.0,Macintosh,Firefox,110,OS X,10.15,null,null,fixation,,,,,
,,,,,image-button-response,28,520870,0.0-6.0-1.5,13,1,2023-03-14 19:54:02,27d22b55943edf8b2830e96048e50989,Mozilla/5.0 (Macintosh; Intel Mac OS X 10.15; rv:109.0) Gecko/20100101 Firefox/110.0,Macintosh,Firefox,110,OS X,10.15,68177,4,response_pred,Bombus hortorum,FALSE,Bombus pratorum,it has fuzzy yellow and black stripes,
,,,,,html-button-response,29,525395,0.0-7.0,13,1,2023-03-14 19:54:02,27d22b55943edf8b2830e96048e50989,Mozilla/5.0 (Macintosh; Intel Mac OS X 10.15; rv:109.0) Gecko/20100101 Firefox/110.0,Macintosh,Firefox,110,OS X,10.15,4522,0,,,,,,
,,,,,html-keyboard-response,30,525652,0.0-8.0-0.0,13,1,2023-03-14 19:54:02,27d22b55943edf8b2830e96048e50989,Mozilla/5.0 (Macintosh; Intel Mac OS X 10.15; rv:109.0) Gecko/20100101 Firefox/110.0,Macintosh,Firefox,110,OS X,10.15,null,null,fixation,,,,,
,,,,,image-button-response,31,569969,0.0-8.0-1.0,13,1,2023-03-14 19:54:02,27d22b55943edf8b2830e96048e50989,Mozilla/5.0 (Macintosh; Intel Mac OS X 10.15; rv:109.0) Gecko/20100101 Firefox/110.0,Macintosh,Firefox,110,OS X,10.15,44309,1,response_2,Andrena flavipes,TRUE,,,
,,,,,html-keyboard-response,32,570226,0.0-8.0-0.1,13,1,2023-03-14 19:54:02,27d22b55943edf8b2830e96048e50989,Mozilla/5.0 (Macintosh; Intel Mac OS X 10.15; rv:109.0) Gecko/20100101 Firefox/110.0,Macintosh,Firefox,110,OS X,10.15,null,null,fixation,,,,,
,,,,,image-button-response,33,582735,0.0-8.0-1.1,13,1,2023-03-14 19:54:02,27d22b55943edf8b2830e96048e50989,Mozilla/5.0 (Macintosh; Intel Mac OS X 10.15; rv:109.0) Gecko/20100101 Firefox/110.0,Macintosh,Firefox,110,OS X,10.15,12498,4,response_2,Bombus lucorum,TRUE,,,
,,,,,html-keyboard-response,34,582992,0.0-8.0-0.2,13,1,2023-03-14 19:54:02,27d22b55943edf8b2830e96048e50989,Mozilla/5.0 (Macintosh; Intel Mac OS X 10.15; rv:109.0) Gecko/20100101 Firefox/110.0,Macintosh,Firefox,110,OS X,10.15,null,null,fixation,,,,,
,,,,,image-button-response,35,611754,0.0-8.0-1.2,13,1,2023-03-14 19:54:02,27d22b55943edf8b2830e96048e50989,Mozilla/5.0 (Macintosh; Intel Mac OS X 10.15; rv:109.0) Gecko/20100101 Firefox/110.0,Macintosh,Firefox,110,OS X,10.15,28750,5,response_2,Bombus hortorum,FALSE,,,
,,,,,html-keyboard-response,36,612010,0.0-8.0-0.3,13,1,2023-03-14 19:54:02,27d22b55943edf8b2830e96048e50989,Mozilla/5.0 (Macintosh; Intel Mac OS X 10.15; rv:109.0) Gecko/20100101 Firefox/110.0,Macintosh,Firefox,110,OS X,10.15,null,null,fixation,,,,,
,,,,,image-button-response,37,630833,0.0-8.0-1.3,13,1,2023-03-14 19:54:02,27d22b55943edf8b2830e96048e50989,Mozilla/5.0 (Macintosh; Intel Mac OS X 10.15; rv:109.0) Gecko/20100101 Firefox/110.0,Macintosh,Firefox,110,OS X,10.15,18812,2,response_2,Andrena fulva,TRUE,,,
,,,,,html-keyboard-response,38,631091,0.0-8.0-0.4,13,1,2023-03-14 19:54:02,27d22b55943edf8b2830e96048e50989,Mozilla/5.0 (Macintosh; Intel Mac OS X 10.15; rv:109.0) Gecko/20100101 Firefox/110.0,Macintosh,Firefox,110,OS X,10.15,null,null,fixation,,,,,
,,,,,image-button-response,39,636941,0.0-8.0-1.4,13,1,2023-03-14 19:54:02,27d22b55943edf8b2830e96048e50989,Mozilla/5.0 (Macintosh; Intel Mac OS X 10.15; rv:109.0) Gecko/20100101 Firefox/110.0,Macintosh,Firefox,110,OS X,10.15,5843,0,response_2,Andrena bicolor,TRUE,,,
,,,,,html-keyboard-response,40,637694,0.0-8.0-0.5,13,1,2023-03-14 19:54:02,27d22b55943edf8b2830e96048e50989,Mozilla/5.0 (Macintosh; Intel Mac OS X 10.15; rv:109.0) Gecko/20100101 Firefox/110.0,Macintosh,Firefox,110,OS X,10.15,null,null,fixation,,,,,
,,,,,image-button-response,41,651317,0.0-8.0-1.5,13,1,2023-03-14 19:54:02,27d22b55943edf8b2830e96048e50989,Mozilla/5.0 (Macintosh; Intel Mac OS X 10.15; rv:109.0) Gecko/20100101 Firefox/110.0,Macintosh,Firefox,110,OS X,10.15,13615,5,response_2,Bombus lucorum,FALSE,,,
,,,,,html-button-response,42,655509,0.0-9.0,13,1,2023-03-14 19:54:02,27d22b55943edf8b2830e96048e50989,Mozilla/5.0 (Macintosh; Intel Mac OS X 10.15; rv:109.0) Gecko/20100101 Firefox/110.0,Macintosh,Firefox,110,OS X,10.15,4189,0,,,,,,
,,,,,survey-multi-choice,43,848314,0.0-10.0,13,1,2023-03-14 19:54:02,27d22b55943edf8b2830e96048e50989,Mozilla/5.0 (Macintosh; Intel Mac OS X 10.15; rv:109.0) Gecko/20100101 Firefox/110.0,Macintosh,Firefox,110,OS X,10.15,192801,"{""support_exp"":""neutral"",""causal_exp"":""somewhat disagree"",""know_exp"":""somewhat agree"",""understand_exp"":""somewhat agree""}",,,,,,"[0,1,2,3]"
,,,,,html-button-response,44,849588,0.0-11.0,13,1,2023-03-14 19:54:02,27d22b55943edf8b2830e96048e50989,Mozilla/5.0 (Macintosh; Intel Mac OS X 10.15; rv:109.0) Gecko/20100101 Firefox/110.0,Macintosh,Firefox,110,OS X,10.15,1273,0,,,,,,
TRUE,FALSE,[],[],[],preload,0,884,0.0-0.0,157,1,2023-03-16 21:00:04,27d22b55943edf8b2830e96048e50989,"Mozilla/5.0 (Linux; Android 12; SM-G975F Build/SP1A.210812.016; wv) AppleWebKit/537.36 (KHTML, like Gecko) Version/4.0 Chrome/110.0.5481.153 Mobile Safari/537.36 Instagram 274.0.0.26.90 Android (31/12; 480dpi; 1080x2029; samsung; SM-G975F; beyond2; exynos9820; de_DE; 456141810)",Samsung,Chrome,110.0.5481.153,AndroidOS,12,,,,,,,,
,,,,,html-button-response,1,3877,0.0-1.0,157,1,2023-03-16 21:00:04,27d22b55943edf8b2830e96048e50989,"Mozilla/5.0 (Linux; Android 12; SM-G975F Build/SP1A.210812.016; wv) AppleWebKit/537.36 (KHTML, like Gecko) Version/4.0 Chrome/110.0.5481.153 Mobile Safari/537.36 Instagram 274.0.0.26.90 Android (31/12; 480dpi; 1080x2029; samsung; SM-G975F; beyond2; exynos9820; de_DE; 456141810)",Samsung,Chrome,110.0.5481.153,AndroidOS,12,2987,0,,,,,,
,,,,,html-button-response,2,71151,0.0-2.0,157,1,2023-03-16 21:00:04,27d22b55943edf8b2830e96048e50989,"Mozilla/5.0 (Linux; Android 12; SM-G975F Build/SP1A.210812.016; wv) AppleWebKit/537.36 (KHTML, like Gecko) Version/4.0 Chrome/110.0.5481.153 Mobile Safari/537.36 Instagram 274.0.0.26.90 Android (31/12; 480dpi; 1080x2029; samsung; SM-G975F; beyond2; exynos9820; de_DE; 456141810)",Samsung,Chrome,110.0.5481.153,AndroidOS,12,67270,0,,,,,,
,,,,,html-button-response,3,199199,0.0-3.0,157,1,2023-03-16 21:00:04,27d22b55943edf8b2830e96048e50989,"Mozilla/5.0 (Linux; Android 12; SM-G975F Build/SP1A.210812.016; wv) AppleWebKit/537.36 (KHTML, like Gecko) Version/4.0 Chrome/110.0.5481.153 Mobile Safari/537.36 Instagram 274.0.0.26.90 Android (31/12; 480dpi; 1080x2029; samsung; SM-G975F; beyond2; exynos9820; de_DE; 456141810)",Samsung,Chrome,110.0.5481.153,AndroidOS,12,128041,0,,,,,,
,,,,,html-keyboard-response,4,200456,0.0-4.0-0.0,157,1,2023-03-16 21:00:04,27d22b55943edf8b2830e96048e50989,"Mozilla/5.0 (Linux; Android 12; SM-G975F Build/SP1A.210812.016; wv) AppleWebKit/537.36 (KHTML, like Gecko) Version/4.0 Chrome/110.0.5481.153 Mobile Safari/537.36 Instagram 274.0.0.26.90 Android (31/12; 480dpi; 1080x2029; samsung; SM-G975F; beyond2; exynos9820; de_DE; 456141810)",Samsung,Chrome,110.0.5481.153,AndroidOS,12,null,null,fixation,,,,,
,,,,,image-button-response,5,238392,0.0-4.0-1.0,157,1,2023-03-16 21:00:04,27d22b55943edf8b2830e96048e50989,"Mozilla/5.0 (Linux; Android 12; SM-G975F Build/SP1A.210812.016; wv) AppleWebKit/537.36 (KHTML, like Gecko) Version/4.0 Chrome/110.0.5481.153 Mobile Safari/537.36 Instagram 274.0.0.26.90 Android (31/12; 480dpi; 1080x2029; samsung; SM-G975F; beyond2; exynos9820; de_DE; 456141810)",Samsung,Chrome,110.0.5481.153,AndroidOS,12,37897,4,response_1,Bombus hortorum,FALSE,,,
,,,,,html-keyboard-response,6,238898,0.0-4.0-0.1,157,1,2023-03-16 21:00:04,27d22b55943edf8b2830e96048e50989,"Mozilla/5.0 (Linux; Android 12; SM-G975F Build/SP1A.210812.016; wv) AppleWebKit/537.36 (KHTML, like Gecko) Version/4.0 Chrome/110.0.5481.153 Mobile Safari/537.36 Instagram 274.0.0.26.90 Android (31/12; 480dpi; 1080x2029; samsung; SM-G975F; beyond2; exynos9820; de_DE; 456141810)",Samsung,Chrome,110.0.5481.153,AndroidOS,12,null,null,fixation,,,,,
,,,,,image-button-response,7,269664,0.0-4.0-1.1,157,1,2023-03-16 21:00:04,27d22b55943edf8b2830e96048e50989,"Mozilla/5.0 (Linux; Android 12; SM-G975F Build/SP1A.210812.016; wv) AppleWebKit/537.36 (KHTML, like Gecko) Version/4.0 Chrome/110.0.5481.153 Mobile Safari/537.36 Instagram 274.0.0.26.90 Android (31/12; 480dpi; 1080x2029; samsung; SM-G975F; beyond2; exynos9820; de_DE; 456141810)",Samsung,Chrome,110.0.5481.153,AndroidOS,12,30758,5,response_1,Bombus pratorum,TRUE,,,
,,,,,html-keyboard-response,8,270167,0.0-4.0-0.2,157,1,2023-03-16 21:00:04,27d22b55943edf8b2830e96048e50989,"Mozilla/5.0 (Linux; Android 12; SM-G975F Build/SP1A.210812.016; wv) AppleWebKit/537.36 (KHTML, like Gecko) Version/4.0 Chrome/110.0.5481.153 Mobile Safari/537.36 Instagram 274.0.0.26.90 Android (31/12; 480dpi; 1080x2029; samsung; SM-G975F; beyond2; exynos9820; de_DE; 456141810)",Samsung,Chrome,110.0.5481.153,AndroidOS,12,null,null,fixation,,,,,
,,,,,image-button-response,9,291484,0.0-4.0-1.2,157,1,2023-03-16 21:00:04,27d22b55943edf8b2830e96048e50989,"Mozilla/5.0 (Linux; Android 12; SM-G975F Build/SP1A.210812.016; wv) AppleWebKit/537.36 (KHTML, like Gecko) Version/4.0 Chrome/110.0.5481.153 Mobile Safari/537.36 Instagram 274.0.0.26.90 Android (31/12; 480dpi; 1080x2029; samsung; SM-G975F; beyond2; exynos9820; de_DE; 456141810)",Samsung,Chrome,110.0.5481.153,AndroidOS,12,21310,4,response_1,Bombus lucorum,TRUE,,,
,,,,,html-keyboard-response,10,292237,0.0-4.0-0.3,157,1,2023-03-16 21:00:04,27d22b55943edf8b2830e96048e50989,"Mozilla/5.0 (Linux; Android 12; SM-G975F Build/SP1A.210812.016; wv) AppleWebKit/537.36 (KHTML, like Gecko) Version/4.0 Chrome/110.0.5481.153 Mobile Safari/537.36 Instagram 274.0.0.26.90 Android (31/12; 480dpi; 1080x2029; samsung; SM-G975F; beyond2; exynos9820; de_DE; 456141810)",Samsung,Chrome,110.0.5481.153,AndroidOS,12,null,null,fixation,,,,,
,,,,,image-button-response,11,319040,0.0-4.0-1.3,157,1,2023-03-16 21:00:04,27d22b55943edf8b2830e96048e50989,"Mozilla/5.0 (Linux; Android 12; SM-G975F Build/SP1A.210812.016; wv) AppleWebKit/537.36 (KHTML, like Gecko) Version/4.0 Chrome/110.0.5481.153 Mobile Safari/537.36 Instagram 274.0.0.26.90 Android (31/12; 480dpi; 1080x2029; samsung; SM-G975F; beyond2; exynos9820; de_DE; 456141810)",Samsung,Chrome,110.0.5481.153,AndroidOS,12,26793,4,response_1,Bombus lucorum,TRUE,,,
,,,,,html-keyboard-response,12,319543,0.0-4.0-0.4,157,1,2023-03-16 21:00:04,27d22b55943edf8b2830e96048e50989,"Mozilla/5.0 (Linux; Android 12; SM-G975F Build/SP1A.210812.016; wv) AppleWebKit/537.36 (KHTML, like Gecko) Version/4.0 Chrome/110.0.5481.153 Mobile Safari/537.36 Instagram 274.0.0.26.90 Android (31/12; 480dpi; 1080x2029; samsung; SM-G975F; beyond2; exynos9820; de_DE; 456141810)",Samsung,Chrome,110.0.5481.153,AndroidOS,12,null,null,fixation,,,,,
,,,,,image-button-response,13,327062,0.0-4.0-1.4,157,1,2023-03-16 21:00:04,27d22b55943edf8b2830e96048e50989,"Mozilla/5.0 (Linux; Android 12; SM-G975F Build/SP1A.210812.016; wv) AppleWebKit/537.36 (KHTML, like Gecko) Version/4.0 Chrome/110.0.5481.153 Mobile Safari/537.36 Instagram 274.0.0.26.90 Android (31/12; 480dpi; 1080x2029; samsung; SM-G975F; beyond2; exynos9820; de_DE; 456141810)",Samsung,Chrome,110.0.5481.153,AndroidOS,12,7503,4,response_1,Bombus hortorum,FALSE,,,
,,,,,html-keyboard-response,14,327815,0.0-4.0-0.5,157,1,2023-03-16 21:00:04,27d22b55943edf8b2830e96048e50989,"Mozilla/5.0 (Linux; Android 12; SM-G975F Build/SP1A.210812.016; wv) AppleWebKit/537.36 (KHTML, like Gecko) Version/4.0 Chrome/110.0.5481.153 Mobile Safari/537.36 Instagram 274.0.0.26.90 Android (31/12; 480dpi; 1080x2029; samsung; SM-G975F; beyond2; exynos9820; de_DE; 456141810)",Samsung,Chrome,110.0.5481.153,AndroidOS,12,null,null,fixation,,,,,
,,,,,image-button-response,15,371481,0.0-4.0-1.5,157,1,2023-03-16 21:00:04,27d22b55943edf8b2830e96048e50989,"Mozilla/5.0 (Linux; Android 12; SM-G975F Build/SP1A.210812.016; wv) AppleWebKit/537.36 (KHTML, like Gecko) Version/4.0 Chrome/110.0.5481.153 Mobile Safari/537.36 Instagram 274.0.0.26.90 Android (31/12; 480dpi; 1080x2029; samsung; SM-G975F; beyond2; exynos9820; de_DE; 456141810)",Samsung,Chrome,110.0.5481.153,AndroidOS,12,43658,0,response_1,Andrena fulva,FALSE,,,
,,,,,html-button-response,16,392359,0.0-5.0,157,1,2023-03-16 21:00:04,27d22b55943edf8b2830e96048e50989,"Mozilla/5.0 (Linux; Android 12; SM-G975F Build/SP1A.210812.016; wv) AppleWebKit/537.36 (KHTML, like Gecko) Version/4.0 Chrome/110.0.5481.153 Mobile Safari/537.36 Instagram 274.0.0.26.90 Android (31/12; 480dpi; 1080x2029; samsung; SM-G975F; beyond2; exynos9820; de_DE; 456141810)",Samsung,Chrome,110.0.5481.153,AndroidOS,12,20873,0,,,,,,
,,,,,html-keyboard-response,17,393112,0.0-6.0-0.0,157,1,2023-03-16 21:00:04,27d22b55943edf8b2830e96048e50989,"Mozilla/5.0 (Linux; Android 12; SM-G975F Build/SP1A.210812.016; wv) AppleWebKit/537.36 (KHTML, like Gecko) Version/4.0 Chrome/110.0.5481.153 Mobile Safari/537.36 Instagram 274.0.0.26.90 Android (31/12; 480dpi; 1080x2029; samsung; SM-G975F; beyond2; exynos9820; de_DE; 456141810)",Samsung,Chrome,110.0.5481.153,AndroidOS,12,null,null,fixation,,,,,
,,,,,image-button-response,18,426137,0.0-6.0-1.0,157,1,2023-03-16 21:00:04,27d22b55943edf8b2830e96048e50989,"Mozilla/5.0 (Linux; Android 12; SM-G975F Build/SP1A.210812.016; wv) AppleWebKit/537.36 (KHTML, like Gecko) Version/4.0 Chrome/110.0.5481.153 Mobile Safari/537.36 Instagram 274.0.0.26.90 Android (31/12; 480dpi; 1080x2029; samsung; SM-G975F; beyond2; exynos9820; de_DE; 456141810)",Samsung,Chrome,110.0.5481.153,AndroidOS,12,33013,2,response_pred,Andrena fulva,TRUE,Andrena fulva,it is fuzzy dark orange and it has a smooth shiny dark brown texture,
,,,,,html-keyboard-response,19,426640,0.0-6.0-0.1,157,1,2023-03-16 21:00:04,27d22b55943edf8b2830e96048e50989,"Mozilla/5.0 (Linux; Android 12; SM-G975F Build/SP1A.210812.016; wv) AppleWebKit/537.36 (KHTML, like Gecko) Version/4.0 Chrome/110.0.5481.153 Mobile Safari/537.36 Instagram 274.0.0.26.90 Android (31/12; 480dpi; 1080x2029; samsung; SM-G975F; beyond2; exynos9820; de_DE; 456141810)",Samsung,Chrome,110.0.5481.153,AndroidOS,12,null,null,fixation,,,,,
,,,,,image-button-response,20,440301,0.0-6.0-1.1,157,1,2023-03-16 21:00:04,27d22b55943edf8b2830e96048e50989,"Mozilla/5.0 (Linux; Android 12; SM-G975F Build/SP1A.210812.016; wv) AppleWebKit/537.36 (KHTML, like Gecko) Version/4.0 Chrome/110.0.5481.153 Mobile Safari/537.36 Instagram 274.0.0.26.90 Android (31/12; 480dpi; 1080x2029; samsung; SM-G975F; beyond2; exynos9820; de_DE; 456141810)",Samsung,Chrome,110.0.5481.153,AndroidOS,12,13653,4,response_pred,Bombus pratorum,FALSE,Bombus lucorum,it has fuzzy yellow and black stripes,
,,,,,html-keyboard-response,21,440554,0.0-6.0-0.2,157,1,2023-03-16 21:00:04,27d22b55943edf8b2830e96048e50989,"Mozilla/5.0 (Linux; Android 12; SM-G975F Build/SP1A.210812.016; wv) AppleWebKit/537.36 (KHTML, like Gecko) Version/4.0 Chrome/110.0.5481.153 Mobile Safari/537.36 Instagram 274.0.0.26.90 Android (31/12; 480dpi; 1080x2029; samsung; SM-G975F; beyond2; exynos9820; de_DE; 456141810)",Samsung,Chrome,110.0.5481.153,AndroidOS,12,null,null,fixation,,,,,
,,,,,image-button-response,22,450475,0.0-6.0-1.2,157,1,2023-03-16 21:00:04,27d22b55943edf8b2830e96048e50989,"Mozilla/5.0 (Linux; Android 12; SM-G975F Build/SP1A.210812.016; wv) AppleWebKit/537.36 (KHTML, like Gecko) Version/4.0 Chrome/110.0.5481.153 Mobile Safari/537.36 Instagram 274.0.0.26.90 Android (31/12; 480dpi; 1080x2029; samsung; SM-G975F; beyond2; exynos9820; de_DE; 456141810)",Samsung,Chrome,110.0.5481.153,AndroidOS,12,9912,3,response_pred,Bombus lucorum,FALSE,Bombus hortorum,it has fuzzy yellow and black stripes,
,,,,,html-keyboard-response,23,450979,0.0-6.0-0.3,157,1,2023-03-16 21:00:04,27d22b55943edf8b2830e96048e50989,"Mozilla/5.0 (Linux; Android 12; SM-G975F Build/SP1A.210812.016; wv) AppleWebKit/537.36 (KHTML, like Gecko) Version/4.0 Chrome/110.0.5481.153 Mobile Safari/537.36 Instagram 274.0.0.26.90 Android (31/12; 480dpi; 1080x2029; samsung; SM-G975F; beyond2; exynos9820; de_DE; 456141810)",Samsung,Chrome,110.0.5481.153,AndroidOS,12,null,null,fixation,,,,,
,,,,,image-button-response,24,470640,0.0-6.0-1.3,157,1,2023-03-16 21:00:04,27d22b55943edf8b2830e96048e50989,"Mozilla/5.0 (Linux; Android 12; SM-G975F Build/SP1A.210812.016; wv) AppleWebKit/537.36 (KHTML, like Gecko) Version/4.0 Chrome/110.0.5481.153 Mobile Safari/537.36 Instagram 274.0.0.26.90 Android (31/12; 480dpi; 1080x2029; samsung; SM-G975F; beyond2; exynos9820; de_DE; 456141810)",Samsung,Chrome,110.0.5481.153,AndroidOS,12,19654,0,response_pred,Andrena bicolor,TRUE,Andrena bicolor,it is fuzzy dark orange and it has a smooth shiny dark brown texture,
,,,,,html-keyboard-response,25,471394,0.0-6.0-0.4,157,1,2023-03-16 21:00:04,27d22b55943edf8b2830e96048e50989,"Mozilla/5.0 (Linux; Android 12; SM-G975F Build/SP1A.210812.016; wv) AppleWebKit/537.36 (KHTML, like Gecko) Version/4.0 Chrome/110.0.5481.153 Mobile Safari/537.36 Instagram 274.0.0.26.90 Android (31/12; 480dpi; 1080x2029; samsung; SM-G975F; beyond2; exynos9820; de_DE; 456141810)",Samsung,Chrome,110.0.5481.153,AndroidOS,12,null,null,fixation,,,,,
,,,,,image-button-response,26,481446,0.0-6.0-1.4,157,1,2023-03-16 21:00:04,27d22b55943edf8b2830e96048e50989,"Mozilla/5.0 (Linux; Android 12; SM-G975F Build/SP1A.210812.016; wv) AppleWebKit/537.36 (KHTML, like Gecko) Version/4.0 Chrome/110.0.5481.153 Mobile Safari/537.36 Instagram 274.0.0.26.90 Android (31/12; 480dpi; 1080x2029; samsung; SM-G975F; beyond2; exynos9820; de_DE; 456141810)",Samsung,Chrome,110.0.5481.153,AndroidOS,12,10040,1,response_pred,Andrena flavipes,TRUE,Andrena flavipes,it has a smooth shiny dark brown texture,
,,,,,html-keyboard-response,27,482199,0.0-6.0-0.5,157,1,2023-03-16 21:00:04,27d22b55943edf8b2830e96048e50989,"Mozilla/5.0 (Linux; Android 12; SM-G975F Build/SP1A.210812.016; wv) AppleWebKit/537.36 (KHTML, like Gecko) Version/4.0 Chrome/110.0.5481.153 Mobile Safari/537.36 Instagram 274.0.0.26.90 Android (31/12; 480dpi; 1080x2029; samsung; SM-G975F; beyond2; exynos9820; de_DE; 456141810)",Samsung,Chrome,110.0.5481.153,AndroidOS,12,null,null,fixation,,,,,
,,,,,image-button-response,28,507761,0.0-6.0-1.5,157,1,2023-03-16 21:00:04,27d22b55943edf8b2830e96048e50989,"Mozilla/5.0 (Linux; Android 12; SM-G975F Build/SP1A.210812.016; wv) AppleWebKit/537.36 (KHTML, like Gecko) Version/4.0 Chrome/110.0.5481.153 Mobile Safari/537.36 Instagram 274.0.0.26.90 Android (31/12; 480dpi; 1080x2029; samsung; SM-G975F; beyond2; exynos9820; de_DE; 456141810)",Samsung,Chrome,110.0.5481.153,AndroidOS,12,25553,3,response_pred,Bombus hortorum,TRUE,Bombus pratorum,it has fuzzy yellow and black stripes,
,,,,,html-button-response,29,514327,0.0-7.0,157,1,2023-03-16 21:00:04,27d22b55943edf8b2830e96048e50989,"Mozilla/5.0 (Linux; Android 12; SM-G975F Build/SP1A.210812.016; wv) AppleWebKit/537.36 (KHTML, like Gecko) Version/4.0 Chrome/110.0.5481.153 Mobile Safari/537.36 Instagram 274.0.0.26.90 Android (31/12; 480dpi; 1080x2029; samsung; SM-G975F; beyond2; exynos9820; de_DE; 456141810)",Samsung,Chrome,110.0.5481.153,AndroidOS,12,6562,0,,,,,,
,,,,,html-keyboard-response,30,515080,0.0-8.0-0.0,157,1,2023-03-16 21:00:04,27d22b55943edf8b2830e96048e50989,"Mozilla/5.0 (Linux; Android 12; SM-G975F Build/SP1A.210812.016; wv) AppleWebKit/537.36 (KHTML, like Gecko) Version/4.0 Chrome/110.0.5481.153 Mobile Safari/537.36 Instagram 274.0.0.26.90 Android (31/12; 480dpi; 1080x2029; samsung; SM-G975F; beyond2; exynos9820; de_DE; 456141810)",Samsung,Chrome,110.0.5481.153,AndroidOS,12,null,null,fixation,,,,,
,,,,,image-button-response,31,523237,0.0-8.0-1.0,157,1,2023-03-16 21:00:04,27d22b55943edf8b2830e96048e50989,"Mozilla/5.0 (Linux; Android 12; SM-G975F Build/SP1A.210812.016; wv) AppleWebKit/537.36 (KHTML, like Gecko) Version/4.0 Chrome/110.0.5481.153 Mobile Safari/537.36 Instagram 274.0.0.26.90 Android (31/12; 480dpi; 1080x2029; samsung; SM-G975F; beyond2; exynos9820; de_DE; 456141810)",Samsung,Chrome,110.0.5481.153,AndroidOS,12,8147,5,response_2,Andrena flavipes,FALSE,,,
,,,,,html-keyboard-response,32,523491,0.0-8.0-0.1,157,1,2023-03-16 21:00:04,27d22b55943edf8b2830e96048e50989,"Mozilla/5.0 (Linux; Android 12; SM-G975F Build/SP1A.210812.016; wv) AppleWebKit/537.36 (KHTML, like Gecko) Version/4.0 Chrome/110.0.5481.153 Mobile Safari/537.36 Instagram 274.0.0.26.90 Android (31/12; 480dpi; 1080x2029; samsung; SM-G975F; beyond2; exynos9820; de_DE; 456141810)",Samsung,Chrome,110.0.5481.153,AndroidOS,12,null,null,fixation,,,,,
,,,,,image-button-response,33,529143,0.0-8.0-1.1,157,1,2023-03-16 21:00:04,27d22b55943edf8b2830e96048e50989,"Mozilla/5.0 (Linux; Android 12; SM-G975F Build/SP1A.210812.016; wv) AppleWebKit/537.36 (KHTML, like Gecko) Version/4.0 Chrome/110.0.5481.153 Mobile Safari/537.36 Instagram 274.0.0.26.90 Android (31/12; 480dpi; 1080x2029; samsung; SM-G975F; beyond2; exynos9820; de_DE; 456141810)",Samsung,Chrome,110.0.5481.153,AndroidOS,12,5644,2,response_2,Andrena fulva,TRUE,,,
,,,,,html-keyboard-response,34,529896,0.0-8.0-0.2,157,1,2023-03-16 21:00:04,27d22b55943edf8b2830e96048e50989,"Mozilla/5.0 (Linux; Android 12; SM-G975F Build/SP1A.210812.016; wv) AppleWebKit/537.36 (KHTML, like Gecko) Version/4.0 Chrome/110.0.5481.153 Mobile Safari/537.36 Instagram 274.0.0.26.90 Android (31/12; 480dpi; 1080x2029; samsung; SM-G975F; beyond2; exynos9820; de_DE; 456141810)",Samsung,Chrome,110.0.5481.153,AndroidOS,12,null,null,fixation,,,,,
,,,,,image-button-response,35,534223,0.0-8.0-1.2,157,1,2023-03-16 21:00:04,27d22b55943edf8b2830e96048e50989,"Mozilla/5.0 (Linux; Android 12; SM-G975F Build/SP1A.210812.016; wv) AppleWebKit/537.36 (KHTML, like Gecko) Version/4.0 Chrome/110.0.5481.153 Mobile Safari/537.36 Instagram 274.0.0.26.90 Android (31/12; 480dpi; 1080x2029; samsung; SM-G975F; beyond2; exynos9820; de_DE; 456141810)",Samsung,Chrome,110.0.5481.153,AndroidOS,12,4317,0,response_2,Andrena bicolor,TRUE,,,
,,,,,html-keyboard-response,36,534976,0.0-8.0-0.3,157,1,2023-03-16 21:00:04,27d22b55943edf8b2830e96048e50989,"Mozilla/5.0 (Linux; Android 12; SM-G975F Build/SP1A.210812.016; wv) AppleWebKit/537.36 (KHTML, like Gecko) Version/4.0 Chrome/110.0.5481.153 Mobile Safari/537.36 Instagram 274.0.0.26.90 Android (31/12; 480dpi; 1080x2029; samsung; SM-G975F; beyond2; exynos9820; de_DE; 456141810)",Samsung,Chrome,110.0.5481.153,AndroidOS,12,null,null,fixation,,,,,
,,,,,image-button-response,37,547240,0.0-8.0-1.3,157,1,2023-03-16 21:00:04,27d22b55943edf8b2830e96048e50989,"Mozilla/5.0 (Linux; Android 12; SM-G975F Build/SP1A.210812.016; wv) AppleWebKit/537.36 (KHTML, like Gecko) Version/4.0 Chrome/110.0.5481.153 Mobile Safari/537.36 Instagram 274.0.0.26.90 Android (31/12; 480dpi; 1080x2029; samsung; SM-G975F; beyond2; exynos9820; de_DE; 456141810)",Samsung,Chrome,110.0.5481.153,AndroidOS,12,12254,3,response_2,Bombus pratorum,FALSE,,,
,,,,,html-keyboard-response,38,547746,0.0-8.0-0.4,157,1,2023-03-16 21:00:04,27d22b55943edf8b2830e96048e50989,"Mozilla/5.0 (Linux; Android 12; SM-G975F Build/SP1A.210812.016; wv) AppleWebKit/537.36 (KHTML, like Gecko) Version/4.0 Chrome/110.0.5481.153 Mobile Safari/537.36 Instagram 274.0.0.26.90 Android (31/12; 480dpi; 1080x2029; samsung; SM-G975F; beyond2; exynos9820; de_DE; 456141810)",Samsung,Chrome,110.0.5481.153,AndroidOS,12,null,null,fixation,,,,,
,,,,,image-button-response,39,558284,0.0-8.0-1.4,157,1,2023-03-16 21:00:04,27d22b55943edf8b2830e96048e50989,"Mozilla/5.0 (Linux; Android 12; SM-G975F Build/SP1A.210812.016; wv) AppleWebKit/537.36 (KHTML, like Gecko) Version/4.0 Chrome/110.0.5481.153 Mobile Safari/537.36 Instagram 274.0.0.26.90 Android (31/12; 480dpi; 1080x2029; samsung; SM-G975F; beyond2; exynos9820; de_DE; 456141810)",Samsung,Chrome,110.0.5481.153,AndroidOS,12,10531,0,response_2,Andrena bicolor,TRUE,,,
,,,,,html-keyboard-response,40,559037,0.0-8.0-0.5,157,1,2023-03-16 21:00:04,27d22b55943edf8b2830e96048e50989,"Mozilla/5.0 (Linux; Android 12; SM-G975F Build/SP1A.210812.016; wv) AppleWebKit/537.36 (KHTML, like Gecko) Version/4.0 Chrome/110.0.5481.153 Mobile Safari/537.36 Instagram 274.0.0.26.90 Android (31/12; 480dpi; 1080x2029; samsung; SM-G975F; beyond2; exynos9820; de_DE; 456141810)",Samsung,Chrome,110.0.5481.153,AndroidOS,12,null,null,fixation,,,,,
,,,,,image-button-response,41,577836,0.0-8.0-1.5,157,1,2023-03-16 21:00:04,27d22b55943edf8b2830e96048e50989,"Mozilla/5.0 (Linux; Android 12; SM-G975F Build/SP1A.210812.016; wv) AppleWebKit/537.36 (KHTML, like Gecko) Version/4.0 Chrome/110.0.5481.153 Mobile Safari/537.36 Instagram 274.0.0.26.90 Android (31/12; 480dpi; 1080x2029; samsung; SM-G975F; beyond2; exynos9820; de_DE; 456141810)",Samsung,Chrome,110.0.5481.153,AndroidOS,12,18790,1,response_2,Andrena flavipes,TRUE,,,
,,,,,html-button-response,42,580680,0.0-9.0,157,1,2023-03-16 21:00:04,27d22b55943edf8b2830e96048e50989,"Mozilla/5.0 (Linux; Android 12; SM-G975F Build/SP1A.210812.016; wv) AppleWebKit/537.36 (KHTML, like Gecko) Version/4.0 Chrome/110.0.5481.153 Mobile Safari/537.36 Instagram 274.0.0.26.90 Android (31/12; 480dpi; 1080x2029; samsung; SM-G975F; beyond2; exynos9820; de_DE; 456141810)",Samsung,Chrome,110.0.5481.153,AndroidOS,12,2840,0,,,,,,
,,,,,survey-multi-choice,43,664910,0.0-10.0,157,1,2023-03-16 21:00:04,27d22b55943edf8b2830e96048e50989,"Mozilla/5.0 (Linux; Android 12; SM-G975F Build/SP1A.210812.016; wv) AppleWebKit/537.36 (KHTML, like Gecko) Version/4.0 Chrome/110.0.5481.153 Mobile Safari/537.36 Instagram 274.0.0.26.90 Android (31/12; 480dpi; 1080x2029; samsung; SM-G975F; beyond2; exynos9820; de_DE; 456141810)",Samsung,Chrome,110.0.5481.153,AndroidOS,12,84219,"{""support_exp"":""somewhat agree"",""causal_exp"":""neutral"",""know_exp"":""somewhat agree"",""understand_exp"":""neutral""}",,,,,,"[0,1,2,3]"
,,,,,html-button-response,44,668065,0.0-11.0,157,1,2023-03-16 21:00:04,27d22b55943edf8b2830e96048e50989,"Mozilla/5.0 (Linux; Android 12; SM-G975F Build/SP1A.210812.016; wv) AppleWebKit/537.36 (KHTML, like Gecko) Version/4.0 Chrome/110.0.5481.153 Mobile Safari/537.36 Instagram 274.0.0.26.90 Android (31/12; 480dpi; 1080x2029; samsung; SM-G975F; beyond2; exynos9820; de_DE; 456141810)",Samsung,Chrome,110.0.5481.153,AndroidOS,12,3145,0,,,,,,
TRUE,FALSE,[],[],[],preload,0,329,0.0-0.0,160,1,2023-03-17 11:04:57,27d22b55943edf8b2830e96048e50989,"Mozilla/5.0 (iPhone; CPU iPhone OS 16_3_1 like Mac OS X) AppleWebKit/605.1.15 (KHTML, like Gecko) Version/16.3 Mobile/15E148 Safari/604.1",iPhone,Safari,16.3,iOS,16_3_1,,,,,,,,
,,,,,html-button-response,1,1732,0.0-1.0,160,1,2023-03-17 11:04:57,27d22b55943edf8b2830e96048e50989,"Mozilla/5.0 (iPhone; CPU iPhone OS 16_3_1 like Mac OS X) AppleWebKit/605.1.15 (KHTML, like Gecko) Version/16.3 Mobile/15E148 Safari/604.1",iPhone,Safari,16.3,iOS,16_3_1,1397,0,,,,,,
,,,,,html-button-response,2,26077,0.0-2.0,160,1,2023-03-17 11:04:57,27d22b55943edf8b2830e96048e50989,"Mozilla/5.0 (iPhone; CPU iPhone OS 16_3_1 like Mac OS X) AppleWebKit/605.1.15 (KHTML, like Gecko) Version/16.3 Mobile/15E148 Safari/604.1",iPhone,Safari,16.3,iOS,16_3_1,24341,0,,,,,,
,,,,,html-button-response,3,97414,0.0-3.0,160,1,2023-03-17 11:04:57,27d22b55943edf8b2830e96048e50989,"Mozilla/5.0 (iPhone; CPU iPhone OS 16_3_1 like Mac OS X) AppleWebKit/605.1.15 (KHTML, like Gecko) Version/16.3 Mobile/15E148 Safari/604.1",iPhone,Safari,16.3,iOS,16_3_1,71328,0,,,,,,
,,,,,html-keyboard-response,4,99182,0.0-4.0-0.0,160,1,2023-03-17 11:04:57,27d22b55943edf8b2830e96048e50989,"Mozilla/5.0 (iPhone; CPU iPhone OS 16_3_1 like Mac OS X) AppleWebKit/605.1.15 (KHTML, like Gecko) Version/16.3 Mobile/15E148 Safari/604.1",iPhone,Safari,16.3,iOS,16_3_1,null,null,fixation,,,,,
,,,,,image-button-response,5,149636,0.0-4.0-1.0,160,1,2023-03-17 11:04:57,27d22b55943edf8b2830e96048e50989,"Mozilla/5.0 (iPhone; CPU iPhone OS 16_3_1 like Mac OS X) AppleWebKit/605.1.15 (KHTML, like Gecko) Version/16.3 Mobile/15E148 Safari/604.1",iPhone,Safari,16.3,iOS,16_3_1,50423,0,response_1,Andrena bicolor,TRUE,,,
,,,,,html-keyboard-response,6,150141,0.0-4.0-0.1,160,1,2023-03-17 11:04:57,27d22b55943edf8b2830e96048e50989,"Mozilla/5.0 (iPhone; CPU iPhone OS 16_3_1 like Mac OS X) AppleWebKit/605.1.15 (KHTML, like Gecko) Version/16.3 Mobile/15E148 Safari/604.1",iPhone,Safari,16.3,iOS,16_3_1,null,null,fixation,,,,,
,,,,,image-button-response,7,166143,0.0-4.0-1.1,160,1,2023-03-17 11:04:57,27d22b55943edf8b2830e96048e50989,"Mozilla/5.0 (iPhone; CPU iPhone OS 16_3_1 like Mac OS X) AppleWebKit/605.1.15 (KHTML, like Gecko) Version/16.3 Mobile/15E148 Safari/604.1",iPhone,Safari,16.3,iOS,16_3_1,15989,5,response_1,Bombus pratorum,TRUE,,,
,,,,,html-keyboard-response,8,166648,0.0-4.0-0.2,160,1,2023-03-17 11:04:57,27d22b55943edf8b2830e96048e50989,"Mozilla/5.0 (iPhone; CPU iPhone OS 16_3_1 like Mac OS X) AppleWebKit/605.1.15 (KHTML, like Gecko) Version/16.3 Mobile/15E148 Safari/604.1",iPhone,Safari,16.3,iOS,16_3_1,null,null,fixation,,,,,
,,,,,image-button-response,9,178417,0.0-4.0-1.2,160,1,2023-03-17 11:04:57,27d22b55943edf8b2830e96048e50989,"Mozilla/5.0 (iPhone; CPU iPhone OS 16_3_1 like Mac OS X) AppleWebKit/605.1.15 (KHTML, like Gecko) Version/16.3 Mobile/15E148 Safari/604.1",iPhone,Safari,16.3,iOS,16_3_1,11742,2,response_1,Andrena fulva,TRUE,,,
,,,,,html-keyboard-response,10,178921,0.0-4.0-0.3,160,1,2023-03-17 11:04:57,27d22b55943edf8b2830e96048e50989,"Mozilla/5.0 (iPhone; CPU iPhone OS 16_3_1 like Mac OS X) AppleWebKit/605.1.15 (KHTML, like Gecko) Version/16.3 Mobile/15E148 Safari/604.1",iPhone,Safari,16.3,iOS,16_3_1,null,null,fixation,,,,,
,,,,,image-button-response,11,209796,0.0-4.0-1.3,160,1,2023-03-17 11:04:57,27d22b55943edf8b2830e96048e50989,"Mozilla/5.0 (iPhone; CPU iPhone OS 16_3_1 like Mac OS X) AppleWebKit/605.1.15 (KHTML, like Gecko) Version/16.3 Mobile/15E148 Safari/604.1",iPhone,Safari,16.3,iOS,16_3_1,30845,3,response_1,Bombus hortorum,TRUE,,,
,,,,,html-keyboard-response,12,210302,0.0-4.0-0.4,160,1,2023-03-17 11:04:57,27d22b55943edf8b2830e96048e50989,"Mozilla/5.0 (iPhone; CPU iPhone OS 16_3_1 like Mac OS X) AppleWebKit/605.1.15 (KHTML, like Gecko) Version/16.3 Mobile/15E148 Safari/604.1",iPhone,Safari,16.3,iOS,16_3_1,null,null,fixation,,,,,
,,,,,image-button-response,13,236615,0.0-4.0-1.4,160,1,2023-03-17 11:04:57,27d22b55943edf8b2830e96048e50989,"Mozilla/5.0 (iPhone; CPU iPhone OS 16_3_1 like Mac OS X) AppleWebKit/605.1.15 (KHTML, like Gecko) Version/16.3 Mobile/15E148 Safari/604.1",iPhone,Safari,16.3,iOS,16_3_1,26293,5,response_1,Bombus lucorum,FALSE,,,
,,,,,html-keyboard-response,14,237120,0.0-4.0-0.5,160,1,2023-03-17 11:04:57,27d22b55943edf8b2830e96048e50989,"Mozilla/5.0 (iPhone; CPU iPhone OS 16_3_1 like Mac OS X) AppleWebKit/605.1.15 (KHTML, like Gecko) Version/16.3 Mobile/15E148 Safari/604.1",iPhone,Safari,16.3,iOS,16_3_1,null,null,fixation,,,,,
,,,,,image-button-response,15,259398,0.0-4.0-1.5,160,1,2023-03-17 11:04:57,27d22b55943edf8b2830e96048e50989,"Mozilla/5.0 (iPhone; CPU iPhone OS 16_3_1 like Mac OS X) AppleWebKit/605.1.15 (KHTML, like Gecko) Version/16.3 Mobile/15E148 Safari/604.1",iPhone,Safari,16.3,iOS,16_3_1,22253,4,response_1,Bombus lucorum,TRUE,,,
,,,,,html-button-response,16,272229,0.0-5.0,160,1,2023-03-17 11:04:57,27d22b55943edf8b2830e96048e50989,"Mozilla/5.0 (iPhone; CPU iPhone OS 16_3_1 like Mac OS X) AppleWebKit/605.1.15 (KHTML, like Gecko) Version/16.3 Mobile/15E148 Safari/604.1",iPhone,Safari,16.3,iOS,16_3_1,12824,0,,,,,,
,,,,,html-keyboard-response,17,272742,0.0-6.0-0.0,160,1,2023-03-17 11:04:57,27d22b55943edf8b2830e96048e50989,"Mozilla/5.0 (iPhone; CPU iPhone OS 16_3_1 like Mac OS X) AppleWebKit/605.1.15 (KHTML, like Gecko) Version/16.3 Mobile/15E148 Safari/604.1",iPhone,Safari,16.3,iOS,16_3_1,null,null,fixation,,,,,
,,,,,image-button-response,18,313212,0.0-6.0-1.0,160,1,2023-03-17 11:04:57,27d22b55943edf8b2830e96048e50989,"Mozilla/5.0 (iPhone; CPU iPhone OS 16_3_1 like Mac OS X) AppleWebKit/605.1.15 (KHTML, like Gecko) Version/16.3 Mobile/15E148 Safari/604.1",iPhone,Safari,16.3,iOS,16_3_1,40438,4,response_pred,Bombus hortorum,FALSE,Bombus pratorum,it has fuzzy yellow and black stripes,
,,,,,html-keyboard-response,19,313468,0.0-6.0-0.1,160,1,2023-03-17 11:04:57,27d22b55943edf8b2830e96048e50989,"Mozilla/5.0 (iPhone; CPU iPhone OS 16_3_1 like Mac OS X) AppleWebKit/605.1.15 (KHTML, like Gecko) Version/16.3 Mobile/15E148 Safari/604.1",iPhone,Safari,16.3,iOS,16_3_1,null,null,fixation,,,,,
,,,,,image-button-response,20,327443,0.0-6.0-1.1,160,1,2023-03-17 11:04:57,27d22b55943edf8b2830e96048e50989,"Mozilla/5.0 (iPhone; CPU iPhone OS 16_3_1 like Mac OS X) AppleWebKit/605.1.15 (KHTML, like Gecko) Version/16.3 Mobile/15E148 Safari/604.1",iPhone,Safari,16.3,iOS,16_3_1,13955,5,response_pred,Bombus pratorum,TRUE,Bombus lucorum,it has fuzzy yellow and black stripes,
,,,,,html-keyboard-response,21,327698,0.0-6.0-0.2,160,1,2023-03-17 11:04:57,27d22b55943edf8b2830e96048e50989,"Mozilla/5.0 (iPhone; CPU iPhone OS 16_3_1 like Mac OS X) AppleWebKit/605.1.15 (KHTML, like Gecko) Version/16.3 Mobile/15E148 Safari/604.1",iPhone,Safari,16.3,iOS,16_3_1,null,null,fixation,,,,,
,,,,,image-button-response,22,347348,0.0-6.0-1.2,160,1,2023-03-17 11:04:57,27d22b55943edf8b2830e96048e50989,"Mozilla/5.0 (iPhone; CPU iPhone OS 16_3_1 like Mac OS X) AppleWebKit/605.1.15 (KHTML, like Gecko) Version/16.3 Mobile/15E148 Safari/604.1",iPhone,Safari,16.3,iOS,16_3_1,19758,0,response_pred,Andrena bicolor,TRUE,Andrena bicolor,it is fuzzy dark orange and it has a smooth shiny dark brown texture,
,,,,,html-keyboard-response,23,347854,0.0-6.0-0.3,160,1,2023-03-17 11:04:57,27d22b55943edf8b2830e96048e50989,"Mozilla/5.0 (iPhone; CPU iPhone OS 16_3_1 like Mac OS X) AppleWebKit/605.1.15 (KHTML, like Gecko) Version/16.3 Mobile/15E148 Safari/604.1",iPhone,Safari,16.3,iOS,16_3_1,null,null,fixation,,,,,
,,,,,image-button-response,24,361547,0.0-6.0-1.3,160,1,2023-03-17 11:04:57,27d22b55943edf8b2830e96048e50989,"Mozilla/5.0 (iPhone; CPU iPhone OS 16_3_1 like Mac OS X) AppleWebKit/605.1.15 (KHTML, like Gecko) Version/16.3 Mobile/15E148 Safari/604.1",iPhone,Safari,16.3,iOS,16_3_1,13666,2,response_pred,Andrena fulva,TRUE,Andrena fulva,it is fuzzy dark orange and it has a smooth shiny dark brown texture,
,,,,,html-keyboard-response,25,361800,0.0-6.0-0.4,160,1,2023-03-17 11:04:57,27d22b55943edf8b2830e96048e50989,"Mozilla/5.0 (iPhone; CPU iPhone OS 16_3_1 like Mac OS X) AppleWebKit/605.1.15 (KHTML, like Gecko) Version/16.3 Mobile/15E148 Safari/604.1",iPhone,Safari,16.3,iOS,16_3_1,null,null,fixation,,,,,
,,,,,image-button-response,26,383501,0.0-6.0-1.4,160,1,2023-03-17 11:04:57,27d22b55943edf8b2830e96048e50989,"Mozilla/5.0 (iPhone; CPU iPhone OS 16_3_1 like Mac OS X) AppleWebKit/605.1.15 (KHTML, like Gecko) Version/16.3 Mobile/15E148 Safari/604.1",iPhone,Safari,16.3,iOS,16_3_1,21666,1,response_pred,Andrena flavipes,TRUE,Andrena flavipes,it has a smooth shiny dark brown texture,
,,,,,html-keyboard-response,27,383758,0.0-6.0-0.5,160,1,2023-03-17 11:04:57,27d22b55943edf8b2830e96048e50989,"Mozilla/5.0 (iPhone; CPU iPhone OS 16_3_1 like Mac OS X) AppleWebKit/605.1.15 (KHTML, like Gecko) Version/16.3 Mobile/15E148 Safari/604.1",iPhone,Safari,16.3,iOS,16_3_1,null,null,fixation,,,,,
,,,,,image-button-response,28,399405,0.0-6.0-1.5,160,1,2023-03-17 11:04:57,27d22b55943edf8b2830e96048e50989,"Mozilla/5.0 (iPhone; CPU iPhone OS 16_3_1 like Mac OS X) AppleWebKit/605.1.15 (KHTML, like Gecko) Version/16.3 Mobile/15E148 Safari/604.1",iPhone,Safari,16.3,iOS,16_3_1,15622,4,response_pred,Bombus lucorum,TRUE,Bombus hortorum,it has fuzzy yellow and black stripes,
,,,,,html-button-response,29,406559,0.0-7.0,160,1,2023-03-17 11:04:57,27d22b55943edf8b2830e96048e50989,"Mozilla/5.0 (iPhone; CPU iPhone OS 16_3_1 like Mac OS X) AppleWebKit/605.1.15 (KHTML, like Gecko) Version/16.3 Mobile/15E148 Safari/604.1",iPhone,Safari,16.3,iOS,16_3_1,7148,0,,,,,,
,,,,,html-keyboard-response,30,407316,0.0-8.0-0.0,160,1,2023-03-17 11:04:57,27d22b55943edf8b2830e96048e50989,"Mozilla/5.0 (iPhone; CPU iPhone OS 16_3_1 like Mac OS X) AppleWebKit/605.1.15 (KHTML, like Gecko) Version/16.3 Mobile/15E148 Safari/604.1",iPhone,Safari,16.3,iOS,16_3_1,null,null,fixation,,,,,
,,,,,image-button-response,31,420474,0.0-8.0-1.0,160,1,2023-03-17 11:04:57,27d22b55943edf8b2830e96048e50989,"Mozilla/5.0 (iPhone; CPU iPhone OS 16_3_1 like Mac OS X) AppleWebKit/605.1.15 (KHTML, like Gecko) Version/16.3 Mobile/15E148 Safari/604.1",iPhone,Safari,16.3,iOS,16_3_1,13136,0,response_2,Andrena bicolor,TRUE,,,
,,,,,html-keyboard-response,32,421230,0.0-8.0-0.1,160,1,2023-03-17 11:04:57,27d22b55943edf8b2830e96048e50989,"Mozilla/5.0 (iPhone; CPU iPhone OS 16_3_1 like Mac OS X) AppleWebKit/605.1.15 (KHTML, like Gecko) Version/16.3 Mobile/15E148 Safari/604.1",iPhone,Safari,16.3,iOS,16_3_1,null,null,fixation,,,,,
,,,,,image-button-response,33,442281,0.0-8.0-1.1,160,1,2023-03-17 11:04:57,27d22b55943edf8b2830e96048e50989,"Mozilla/5.0 (iPhone; CPU iPhone OS 16_3_1 like Mac OS X) AppleWebKit/605.1.15 (KHTML, like Gecko) Version/16.3 Mobile/15E148 Safari/604.1",iPhone,Safari,16.3,iOS,16_3_1,21025,2,response_2,Andrena fulva,TRUE,,,
,,,,,html-keyboard-response,34,443039,0.0-8.0-0.2,160,1,2023-03-17 11:04:57,27d22b55943edf8b2830e96048e50989,"Mozilla/5.0 (iPhone; CPU iPhone OS 16_3_1 like Mac OS X) AppleWebKit/605.1.15 (KHTML, like Gecko) Version/16.3 Mobile/15E148 Safari/604.1",iPhone,Safari,16.3,iOS,16_3_1,null,null,fixation,,,,,
,,,,,image-button-response,35,451223,0.0-8.0-1.2,160,1,2023-03-17 11:04:57,27d22b55943edf8b2830e96048e50989,"Mozilla/5.0 (iPhone; CPU iPhone OS 16_3_1 like Mac OS X) AppleWebKit/605.1.15 (KHTML, like Gecko) Version/16.3 Mobile/15E148 Safari/604.1",iPhone,Safari,16.3,iOS,16_3_1,8163,3,response_2,Bombus hortorum,TRUE,,,
,,,,,html-keyboard-response,36,451729,0.0-8.0-0.3,160,1,2023-03-17 11:04:57,27d22b55943edf8b2830e96048e50989,"Mozilla/5.0 (iPhone; CPU iPhone OS 16_3_1 like Mac OS X) AppleWebKit/605.1.15 (KHTML, like Gecko) Version/16.3 Mobile/15E148 Safari/604.1",iPhone,Safari,16.3,iOS,16_3_1,null,null,fixation,,,,,
,,,,,image-button-response,37,461571,0.0-8.0-1.3,160,1,2023-03-17 11:04:57,27d22b55943edf8b2830e96048e50989,"Mozilla/5.0 (iPhone; CPU iPhone OS 16_3_1 like Mac OS X) AppleWebKit/605.1.15 (KHTML, like Gecko) Version/16.3 Mobile/15E148 Safari/604.1",iPhone,Safari,16.3,iOS,16_3_1,9817,1,response_2,Andrena flavipes,TRUE,,,
,,,,,html-keyboard-response,38,462328,0.0-8.0-0.4,160,1,2023-03-17 11:04:57,27d22b55943edf8b2830e96048e50989,"Mozilla/5.0 (iPhone; CPU iPhone OS 16_3_1 like Mac OS X) AppleWebKit/605.1.15 (KHTML, like Gecko) Version/16.3 Mobile/15E148 Safari/604.1",iPhone,Safari,16.3,iOS,16_3_1,null,null,fixation,,,,,
,,,,,image-button-response,39,471368,0.0-8.0-1.4,160,1,2023-03-17 11:04:57,27d22b55943edf8b2830e96048e50989,"Mozilla/5.0 (iPhone; CPU iPhone OS 16_3_1 like Mac OS X) AppleWebKit/605.1.15 (KHTML, like Gecko) Version/16.3 Mobile/15E148 Safari/604.1",iPhone,Safari,16.3,iOS,16_3_1,9014,4,response_2,Bombus pratorum,FALSE,,,
,,,,,html-keyboard-response,40,471624,0.0-8.0-0.5,160,1,2023-03-17 11:04:57,27d22b55943edf8b2830e96048e50989,"Mozilla/5.0 (iPhone; CPU iPhone OS 16_3_1 like Mac OS X) AppleWebKit/605.1.15 (KHTML, like Gecko) Version/16.3 Mobile/15E148 Safari/604.1",iPhone,Safari,16.3,iOS,16_3_1,null,null,fixation,,,,,
,,,,,image-button-response,41,487352,0.0-8.0-1.5,160,1,2023-03-17 11:04:57,27d22b55943edf8b2830e96048e50989,"Mozilla/5.0 (iPhone; CPU iPhone OS 16_3_1 like Mac OS X) AppleWebKit/605.1.15 (KHTML, like Gecko) Version/16.3 Mobile/15E148 Safari/604.1",iPhone,Safari,16.3,iOS,16_3_1,15706,0,response_2,Andrena flavipes,FALSE,,,
,,,,,html-button-response,42,489536,0.0-9.0,160,1,2023-03-17 11:04:57,27d22b55943edf8b2830e96048e50989,"Mozilla/5.0 (iPhone; CPU iPhone OS 16_3_1 like Mac OS X) AppleWebKit/605.1.15 (KHTML, like Gecko) Version/16.3 Mobile/15E148 Safari/604.1",iPhone,Safari,16.3,iOS,16_3_1,2175,0,,,,,,
,,,,,survey-multi-choice,43,528353,0.0-10.0,160,1,2023-03-17 11:04:57,27d22b55943edf8b2830e96048e50989,"Mozilla/5.0 (iPhone; CPU iPhone OS 16_3_1 like Mac OS X) AppleWebKit/605.1.15 (KHTML, like Gecko) Version/16.3 Mobile/15E148 Safari/604.1",iPhone,Safari,16.3,iOS,16_3_1,38804,"{""support_exp"":""somewhat agree"",""causal_exp"":""somewhat agree"",""know_exp"":""strongly agree"",""understand_exp"":""strongly agree""}",,,,,,"[0,1,2,3]"
,,,,,html-button-response,44,529724,0.0-11.0,160,1,2023-03-17 11:04:57,27d22b55943edf8b2830e96048e50989,"Mozilla/5.0 (iPhone; CPU iPhone OS 16_3_1 like Mac OS X) AppleWebKit/605.1.15 (KHTML, like Gecko) Version/16.3 Mobile/15E148 Safari/604.1",iPhone,Safari,16.3,iOS,16_3_1,1367,0,,,,,,
TRUE,FALSE,[],[],[],preload,0,493,0.0-0.0,167,1,2023-03-17 15:11:55,27d22b55943edf8b2830e96048e50989,"Mozilla/5.0 (Linux; Android 11; SM-A505GT) AppleWebKit/537.36 (KHTML, like Gecko) Chrome/101.0.4951.41 Mobile Safari/537.36 (Ecosia android@101.0.4951.41)",WebKit,Chrome,101.0.4951.41,AndroidOS,11,,,,,,,,
,,,,,html-button-response,1,15826,0.0-1.0,167,1,2023-03-17 15:11:55,27d22b55943edf8b2830e96048e50989,"Mozilla/5.0 (Linux; Android 11; SM-A505GT) AppleWebKit/537.36 (KHTML, like Gecko) Chrome/101.0.4951.41 Mobile Safari/537.36 (Ecosia android@101.0.4951.41)",WebKit,Chrome,101.0.4951.41,AndroidOS,11,15323,0,,,,,,
,,,,,html-button-response,2,46718,0.0-2.0,167,1,2023-03-17 15:11:55,27d22b55943edf8b2830e96048e50989,"Mozilla/5.0 (Linux; Android 11; SM-A505GT) AppleWebKit/537.36 (KHTML, like Gecko) Chrome/101.0.4951.41 Mobile Safari/537.36 (Ecosia android@101.0.4951.41)",WebKit,Chrome,101.0.4951.41,AndroidOS,11,30885,0,,,,,,
,,,,,html-button-response,3,174629,0.0-3.0,167,1,2023-03-17 15:11:55,27d22b55943edf8b2830e96048e50989,"Mozilla/5.0 (Linux; Android 11; SM-A505GT) AppleWebKit/537.36 (KHTML, like Gecko) Chrome/101.0.4951.41 Mobile Safari/537.36 (Ecosia android@101.0.4951.41)",WebKit,Chrome,101.0.4951.41,AndroidOS,11,127898,0,,,,,,
,,,,,html-keyboard-response,4,175912,0.0-4.0-0.0,167,1,2023-03-17 15:11:55,27d22b55943edf8b2830e96048e50989,"Mozilla/5.0 (Linux; Android 11; SM-A505GT) AppleWebKit/537.36 (KHTML, like Gecko) Chrome/101.0.4951.41 Mobile Safari/537.36 (Ecosia android@101.0.4951.41)",WebKit,Chrome,101.0.4951.41,AndroidOS,11,null,null,fixation,,,,,
,,,,,image-button-response,5,198275,0.0-4.0-1.0,167,1,2023-03-17 15:11:55,27d22b55943edf8b2830e96048e50989,"Mozilla/5.0 (Linux; Android 11; SM-A505GT) AppleWebKit/537.36 (KHTML, like Gecko) Chrome/101.0.4951.41 Mobile Safari/537.36 (Ecosia android@101.0.4951.41)",WebKit,Chrome,101.0.4951.41,AndroidOS,11,22176,1,response_1,Andrena flavipes,TRUE,,,
,,,,,html-keyboard-response,6,198534,0.0-4.0-0.1,167,1,2023-03-17 15:11:55,27d22b55943edf8b2830e96048e50989,"Mozilla/5.0 (Linux; Android 11; SM-A505GT) AppleWebKit/537.36 (KHTML, like Gecko) Chrome/101.0.4951.41 Mobile Safari/537.36 (Ecosia android@101.0.4951.41)",WebKit,Chrome,101.0.4951.41,AndroidOS,11,null,null,fixation,,,,,
,,,,,image-button-response,7,224035,0.0-4.0-1.1,167,1,2023-03-17 15:11:55,27d22b55943edf8b2830e96048e50989,"Mozilla/5.0 (Linux; Android 11; SM-A505GT) AppleWebKit/537.36 (KHTML, like Gecko) Chrome/101.0.4951.41 Mobile Safari/537.36 (Ecosia android@101.0.4951.41)",WebKit,Chrome,101.0.4951.41,AndroidOS,11,25482,3,response_1,Bombus lucorum,FALSE,,,
,,,,,html-keyboard-response,8,224543,0.0-4.0-0.2,167,1,2023-03-17 15:11:55,27d22b55943edf8b2830e96048e50989,"Mozilla/5.0 (Linux; Android 11; SM-A505GT) AppleWebKit/537.36 (KHTML, like Gecko) Chrome/101.0.4951.41 Mobile Safari/537.36 (Ecosia android@101.0.4951.41)",WebKit,Chrome,101.0.4951.41,AndroidOS,11,null,null,fixation,,,,,
,,,,,image-button-response,9,239069,0.0-4.0-1.2,167,1,2023-03-17 15:11:55,27d22b55943edf8b2830e96048e50989,"Mozilla/5.0 (Linux; Android 11; SM-A505GT) AppleWebKit/537.36 (KHTML, like Gecko) Chrome/101.0.4951.41 Mobile Safari/537.36 (Ecosia android@101.0.4951.41)",WebKit,Chrome,101.0.4951.41,AndroidOS,11,14465,4,response_1,Bombus hortorum,FALSE,,,
,,,,,html-keyboard-response,10,239574,0.0-4.0-0.3,167,1,2023-03-17 15:11:55,27d22b55943edf8b2830e96048e50989,"Mozilla/5.0 (Linux; Android 11; SM-A505GT) AppleWebKit/537.36 (KHTML, like Gecko) Chrome/101.0.4951.41 Mobile Safari/537.36 (Ecosia android@101.0.4951.41)",WebKit,Chrome,101.0.4951.41,AndroidOS,11,null,null,fixation,,,,,
,,,,,image-button-response,11,253524,0.0-4.0-1.3,167,1,2023-03-17 15:11:55,27d22b55943edf8b2830e96048e50989,"Mozilla/5.0 (Linux; Android 11; SM-A505GT) AppleWebKit/537.36 (KHTML, like Gecko) Chrome/101.0.4951.41 Mobile Safari/537.36 (Ecosia android@101.0.4951.41)",WebKit,Chrome,101.0.4951.41,AndroidOS,11,13930,5,response_1,Andrena fulva,FALSE,,,
,,,,,html-keyboard-response,12,253800,0.0-4.0-0.4,167,1,2023-03-17 15:11:55,27d22b55943edf8b2830e96048e50989,"Mozilla/5.0 (Linux; Android 11; SM-A505GT) AppleWebKit/537.36 (KHTML, like Gecko) Chrome/101.0.4951.41 Mobile Safari/537.36 (Ecosia android@101.0.4951.41)",WebKit,Chrome,101.0.4951.41,AndroidOS,11,null,null,fixation,,,,,
,,,,,image-button-response,13,264431,0.0-4.0-1.4,167,1,2023-03-17 15:11:55,27d22b55943edf8b2830e96048e50989,"Mozilla/5.0 (Linux; Android 11; SM-A505GT) AppleWebKit/537.36 (KHTML, like Gecko) Chrome/101.0.4951.41 Mobile Safari/537.36 (Ecosia android@101.0.4951.41)",WebKit,Chrome,101.0.4951.41,AndroidOS,11,10617,3,response_1,Bombus hortorum,TRUE,,,
,,,,,html-keyboard-response,14,265188,0.0-4.0-0.5,167,1,2023-03-17 15:11:55,27d22b55943edf8b2830e96048e50989,"Mozilla/5.0 (Linux; Android 11; SM-A505GT) AppleWebKit/537.36 (KHTML, like Gecko) Chrome/101.0.4951.41 Mobile Safari/537.36 (Ecosia android@101.0.4951.41)",WebKit,Chrome,101.0.4951.41,AndroidOS,11,null,null,fixation,,,,,
,,,,,image-button-response,15,276627,0.0-4.0-1.5,167,1,2023-03-17 15:11:55,27d22b55943edf8b2830e96048e50989,"Mozilla/5.0 (Linux; Android 11; SM-A505GT) AppleWebKit/537.36 (KHTML, like Gecko) Chrome/101.0.4951.41 Mobile Safari/537.36 (Ecosia android@101.0.4951.41)",WebKit,Chrome,101.0.4951.41,AndroidOS,11,11381,2,response_1,Andrena fulva,TRUE,,,
,,,,,html-button-response,16,288605,0.0-5.0,167,1,2023-03-17 15:11:55,27d22b55943edf8b2830e96048e50989,"Mozilla/5.0 (Linux; Android 11; SM-A505GT) AppleWebKit/537.36 (KHTML, like Gecko) Chrome/101.0.4951.41 Mobile Safari/537.36 (Ecosia android@101.0.4951.41)",WebKit,Chrome,101.0.4951.41,AndroidOS,11,11969,0,,,,,,
,,,,,html-keyboard-response,17,289114,0.0-6.0-0.0,167,1,2023-03-17 15:11:55,27d22b55943edf8b2830e96048e50989,"Mozilla/5.0 (Linux; Android 11; SM-A505GT) AppleWebKit/537.36 (KHTML, like Gecko) Chrome/101.0.4951.41 Mobile Safari/537.36 (Ecosia android@101.0.4951.41)",WebKit,Chrome,101.0.4951.41,AndroidOS,11,null,null,fixation,,,,,
,,,,,image-button-response,18,303679,0.0-6.0-1.0,167,1,2023-03-17 15:11:55,27d22b55943edf8b2830e96048e50989,"Mozilla/5.0 (Linux; Android 11; SM-A505GT) AppleWebKit/537.36 (KHTML, like Gecko) Chrome/101.0.4951.41 Mobile Safari/537.36 (Ecosia android@101.0.4951.41)",WebKit,Chrome,101.0.4951.41,AndroidOS,11,14508,3,response_pred,Bombus hortorum,TRUE,Bombus pratorum,it has fuzzy yellow and black stripes,
,,,,,html-keyboard-response,19,304186,0.0-6.0-0.1,167,1,2023-03-17 15:11:55,27d22b55943edf8b2830e96048e50989,"Mozilla/5.0 (Linux; Android 11; SM-A505GT) AppleWebKit/537.36 (KHTML, like Gecko) Chrome/101.0.4951.41 Mobile Safari/537.36 (Ecosia android@101.0.4951.41)",WebKit,Chrome,101.0.4951.41,AndroidOS,11,null,null,fixation,,,,,
,,,,,image-button-response,20,318198,0.0-6.0-1.1,167,1,2023-03-17 15:11:55,27d22b55943edf8b2830e96048e50989,"Mozilla/5.0 (Linux; Android 11; SM-A505GT) AppleWebKit/537.36 (KHTML, like Gecko) Chrome/101.0.4951.41 Mobile Safari/537.36 (Ecosia android@101.0.4951.41)",WebKit,Chrome,101.0.4951.41,AndroidOS,11,13954,1,response_pred,Andrena flavipes,TRUE,Andrena flavipes,it has a smooth shiny dark brown texture,
,,,,,html-keyboard-response,21,318956,0.0-6.0-0.2,167,1,2023-03-17 15:11:55,27d22b55943edf8b2830e96048e50989,"Mozilla/5.0 (Linux; Android 11; SM-A505GT) AppleWebKit/537.36 (KHTML, like Gecko) Chrome/101.0.4951.41 Mobile Safari/537.36 (Ecosia android@101.0.4951.41)",WebKit,Chrome,101.0.4951.41,AndroidOS,11,null,null,fixation,,,,,
,,,,,image-button-response,22,330870,0.0-6.0-1.2,167,1,2023-03-17 15:11:55,27d22b55943edf8b2830e96048e50989,"Mozilla/5.0 (Linux; Android 11; SM-A505GT) AppleWebKit/537.36 (KHTML, like Gecko) Chrome/101.0.4951.41 Mobile Safari/537.36 (Ecosia android@101.0.4951.41)",WebKit,Chrome,101.0.4951.41,AndroidOS,11,11851,4,response_pred,Bombus pratorum,FALSE,Bombus lucorum,it has fuzzy yellow and black stripes,
,,,,,html-keyboard-response,23,331375,0.0-6.0-0.3,167,1,2023-03-17 15:11:55,27d22b55943edf8b2830e96048e50989,"Mozilla/5.0 (Linux; Android 11; SM-A505GT) AppleWebKit/537.36 (KHTML, like Gecko) Chrome/101.0.4951.41 Mobile Safari/537.36 (Ecosia android@101.0.4951.41)",WebKit,Chrome,101.0.4951.41,AndroidOS,11,null,null,fixation,,,,,
,,,,,image-button-response,24,345663,0.0-6.0-1.3,167,1,2023-03-17 15:11:55,27d22b55943edf8b2830e96048e50989,"Mozilla/5.0 (Linux; Android 11; SM-A505GT) AppleWebKit/537.36 (KHTML, like Gecko) Chrome/101.0.4951.41 Mobile Safari/537.36 (Ecosia android@101.0.4951.41)",WebKit,Chrome,101.0.4951.41,AndroidOS,11,14265,3,response_pred,Bombus lucorum,FALSE,Bombus hortorum,it has fuzzy yellow and black stripes,
,,,,,html-keyboard-response,25,346171,0.0-6.0-0.4,167,1,2023-03-17 15:11:55,27d22b55943edf8b2830e96048e50989,"Mozilla/5.0 (Linux; Android 11; SM-A505GT) AppleWebKit/537.36 (KHTML, like Gecko) Chrome/101.0.4951.41 Mobile Safari/537.36 (Ecosia android@101.0.4951.41)",WebKit,Chrome,101.0.4951.41,AndroidOS,11,null,null,fixation,,,,,
,,,,,image-button-response,26,357750,0.0-6.0-1.4,167,1,2023-03-17 15:11:55,27d22b55943edf8b2830e96048e50989,"Mozilla/5.0 (Linux; Android 11; SM-A505GT) AppleWebKit/537.36 (KHTML, like Gecko) Chrome/101.0.4951.41 Mobile Safari/537.36 (Ecosia android@101.0.4951.41)",WebKit,Chrome,101.0.4951.41,AndroidOS,11,11514,0,response_pred,Andrena bicolor,TRUE,Andrena bicolor,it is fuzzy dark orange and it has a smooth shiny dark brown texture,
,,,,,html-keyboard-response,27,358256,0.0-6.0-0.5,167,1,2023-03-17 15:11:55,27d22b55943edf8b2830e96048e50989,"Mozilla/5.0 (Linux; Android 11; SM-A505GT) AppleWebKit/537.36 (KHTML, like Gecko) Chrome/101.0.4951.41 Mobile Safari/537.36 (Ecosia android@101.0.4951.41)",WebKit,Chrome,101.0.4951.41,AndroidOS,11,null,null,fixation,,,,,
,,,,,image-button-response,28,374508,0.0-6.0-1.5,167,1,2023-03-17 15:11:55,27d22b55943edf8b2830e96048e50989,"Mozilla/5.0 (Linux; Android 11; SM-A505GT) AppleWebKit/537.36 (KHTML, like Gecko) Chrome/101.0.4951.41 Mobile Safari/537.36 (Ecosia android@101.0.4951.41)",WebKit,Chrome,101.0.4951.41,AndroidOS,11,16231,2,response_pred,Andrena fulva,TRUE,Andrena fulva,it is fuzzy dark orange and it has a smooth shiny dark brown texture,
,,,,,html-button-response,29,381846,0.0-7.0,167,1,2023-03-17 15:11:55,27d22b55943edf8b2830e96048e50989,"Mozilla/5.0 (Linux; Android 11; SM-A505GT) AppleWebKit/537.36 (KHTML, like Gecko) Chrome/101.0.4951.41 Mobile Safari/537.36 (Ecosia android@101.0.4951.41)",WebKit,Chrome,101.0.4951.41,AndroidOS,11,7324,0,,,,,,
,,,,,html-keyboard-response,30,382102,0.0-8.0-0.0,167,1,2023-03-17 15:11:55,27d22b55943edf8b2830e96048e50989,"Mozilla/5.0 (Linux; Android 11; SM-A505GT) AppleWebKit/537.36 (KHTML, like Gecko) Chrome/101.0.4951.41 Mobile Safari/537.36 (Ecosia android@101.0.4951.41)",WebKit,Chrome,101.0.4951.41,AndroidOS,11,null,null,fixation,,,,,
,,,,,image-button-response,31,397375,0.0-8.0-1.0,167,1,2023-03-17 15:11:55,27d22b55943edf8b2830e96048e50989,"Mozilla/5.0 (Linux; Android 11; SM-A505GT) AppleWebKit/537.36 (KHTML, like Gecko) Chrome/101.0.4951.41 Mobile Safari/537.36 (Ecosia android@101.0.4951.41)",WebKit,Chrome,101.0.4951.41,AndroidOS,11,15253,2,response_2,Bombus pratorum,FALSE,,,
,,,,,html-keyboard-response,32,397884,0.0-8.0-0.1,167,1,2023-03-17 15:11:55,27d22b55943edf8b2830e96048e50989,"Mozilla/5.0 (Linux; Android 11; SM-A505GT) AppleWebKit/537.36 (KHTML, like Gecko) Chrome/101.0.4951.41 Mobile Safari/537.36 (Ecosia android@101.0.4951.41)",WebKit,Chrome,101.0.4951.41,AndroidOS,11,null,null,fixation,,,,,
,,,,,image-button-response,33,411484,0.0-8.0-1.1,167,1,2023-03-17 15:11:55,27d22b55943edf8b2830e96048e50989,"Mozilla/5.0 (Linux; Android 11; SM-A505GT) AppleWebKit/537.36 (KHTML, like Gecko) Chrome/101.0.4951.41 Mobile Safari/537.36 (Ecosia android@101.0.4951.41)",WebKit,Chrome,101.0.4951.41,AndroidOS,11,13535,5,response_2,Andrena flavipes,FALSE,,,
,,,,,html-keyboard-response,34,412243,0.0-8.0-0.2,167,1,2023-03-17 15:11:55,27d22b55943edf8b2830e96048e50989,"Mozilla/5.0 (Linux; Android 11; SM-A505GT) AppleWebKit/537.36 (KHTML, like Gecko) Chrome/101.0.4951.41 Mobile Safari/537.36 (Ecosia android@101.0.4951.41)",WebKit,Chrome,101.0.4951.41,AndroidOS,11,null,null,fixation,,,,,
,,,,,image-button-response,35,429986,0.0-8.0-1.2,167,1,2023-03-17 15:11:55,27d22b55943edf8b2830e96048e50989,"Mozilla/5.0 (Linux; Android 11; SM-A505GT) AppleWebKit/537.36 (KHTML, like Gecko) Chrome/101.0.4951.41 Mobile Safari/537.36 (Ecosia android@101.0.4951.41)",WebKit,Chrome,101.0.4951.41,AndroidOS,11,17681,4,response_2,Bombus lucorum,TRUE,,,
,,,,,html-keyboard-response,36,430744,0.0-8.0-0.3,167,1,2023-03-17 15:11:55,27d22b55943edf8b2830e96048e50989,"Mozilla/5.0 (Linux; Android 11; SM-A505GT) AppleWebKit/537.36 (KHTML, like Gecko) Chrome/101.0.4951.41 Mobile Safari/537.36 (Ecosia android@101.0.4951.41)",WebKit,Chrome,101.0.4951.41,AndroidOS,11,null,null,fixation,,,,,
,,,,,image-button-response,37,439187,0.0-8.0-1.3,167,1,2023-03-17 15:11:55,27d22b55943edf8b2830e96048e50989,"Mozilla/5.0 (Linux; Android 11; SM-A505GT) AppleWebKit/537.36 (KHTML, like Gecko) Chrome/101.0.4951.41 Mobile Safari/537.36 (Ecosia android@101.0.4951.41)",WebKit,Chrome,101.0.4951.41,AndroidOS,11,8386,0,response_2,Andrena bicolor,TRUE,,,
,,,,,html-keyboard-response,38,439693,0.0-8.0-0.4,167,1,2023-03-17 15:11:55,27d22b55943edf8b2830e96048e50989,"Mozilla/5.0 (Linux; Android 11; SM-A505GT) AppleWebKit/537.36 (KHTML, like Gecko) Chrome/101.0.4951.41 Mobile Safari/537.36 (Ecosia android@101.0.4951.41)",WebKit,Chrome,101.0.4951.41,AndroidOS,11,null,null,fixation,,,,,
,,,,,image-button-response,39,448190,0.0-8.0-1.4,167,1,2023-03-17 15:11:55,27d22b55943edf8b2830e96048e50989,"Mozilla/5.0 (Linux; Android 11; SM-A505GT) AppleWebKit/537.36 (KHTML, like Gecko) Chrome/101.0.4951.41 Mobile Safari/537.36 (Ecosia android@101.0.4951.41)",WebKit,Chrome,101.0.4951.41,AndroidOS,11,8473,2,response_2,Andrena bicolor,FALSE,,,
,,,,,html-keyboard-response,40,448698,0.0-8.0-0.5,167,1,2023-03-17 15:11:55,27d22b55943edf8b2830e96048e50989,"Mozilla/5.0 (Linux; Android 11; SM-A505GT) AppleWebKit/537.36 (KHTML, like Gecko) Chrome/101.0.4951.41 Mobile Safari/537.36 (Ecosia android@101.0.4951.41)",WebKit,Chrome,101.0.4951.41,AndroidOS,11,null,null,fixation,,,,,
,,,,,image-button-response,41,459534,0.0-8.0-1.5,167,1,2023-03-17 15:11:55,27d22b55943edf8b2830e96048e50989,"Mozilla/5.0 (Linux; Android 11; SM-A505GT) AppleWebKit/537.36 (KHTML, like Gecko) Chrome/101.0.4951.41 Mobile Safari/537.36 (Ecosia android@101.0.4951.41)",WebKit,Chrome,101.0.4951.41,AndroidOS,11,10767,4,response_2,Bombus pratorum,FALSE,,,
,,,,,html-button-response,42,464638,0.0-9.0,167,1,2023-03-17 15:11:55,27d22b55943edf8b2830e96048e50989,"Mozilla/5.0 (Linux; Android 11; SM-A505GT) AppleWebKit/537.36 (KHTML, like Gecko) Chrome/101.0.4951.41 Mobile Safari/537.36 (Ecosia android@101.0.4951.41)",WebKit,Chrome,101.0.4951.41,AndroidOS,11,5093,0,,,,,,
,,,,,survey-multi-choice,43,501197,0.0-10.0,167,1,2023-03-17 15:11:55,27d22b55943edf8b2830e96048e50989,"Mozilla/5.0 (Linux; Android 11; SM-A505GT) AppleWebKit/537.36 (KHTML, like Gecko) Chrome/101.0.4951.41 Mobile Safari/537.36 (Ecosia android@101.0.4951.41)",WebKit,Chrome,101.0.4951.41,AndroidOS,11,36528,"{""support_exp"":""neutral"",""causal_exp"":""somewhat disagree"",""know_exp"":""somewhat disagree"",""understand_exp"":""somewhat agree""}",,,,,,"[0,1,2,3]"
,,,,,html-button-response,44,502560,0.0-11.0,167,1,2023-03-17 15:11:55,27d22b55943edf8b2830e96048e50989,"Mozilla/5.0 (Linux; Android 11; SM-A505GT) AppleWebKit/537.36 (KHTML, like Gecko) Chrome/101.0.4951.41 Mobile Safari/537.36 (Ecosia android@101.0.4951.41)",WebKit,Chrome,101.0.4951.41,AndroidOS,11,1325,0,,,,,,
TRUE,FALSE,[],[],[],preload,0,2,0.0-0.0,166,1,2023-03-17 13:02:57,27d22b55943edf8b2830e96048e50989,"Mozilla/5.0 (iPhone; CPU iPhone OS 16_3_1 like Mac OS X) AppleWebKit/605.1.15 (KHTML, like Gecko) Version/16.3 Mobile/15E148 Safari/604.1",iPhone,Safari,16.3,iOS,16_3_1,,,,,,,,
,,,,,html-button-response,1,803,0.0-1.0,166,1,2023-03-17 13:02:57,27d22b55943edf8b2830e96048e50989,"Mozilla/5.0 (iPhone; CPU iPhone OS 16_3_1 like Mac OS X) AppleWebKit/605.1.15 (KHTML, like Gecko) Version/16.3 Mobile/15E148 Safari/604.1",iPhone,Safari,16.3,iOS,16_3_1,800,0,,,,,,
,,,,,html-button-response,2,3357,0.0-2.0,166,1,2023-03-17 13:02:57,27d22b55943edf8b2830e96048e50989,"Mozilla/5.0 (iPhone; CPU iPhone OS 16_3_1 like Mac OS X) AppleWebKit/605.1.15 (KHTML, like Gecko) Version/16.3 Mobile/15E148 Safari/604.1",iPhone,Safari,16.3,iOS,16_3_1,2551,0,,,,,,
,,,,,html-button-response,3,5375,0.0-3.0,166,1,2023-03-17 13:02:57,27d22b55943edf8b2830e96048e50989,"Mozilla/5.0 (iPhone; CPU iPhone OS 16_3_1 like Mac OS X) AppleWebKit/605.1.15 (KHTML, like Gecko) Version/16.3 Mobile/15E148 Safari/604.1",iPhone,Safari,16.3,iOS,16_3_1,2014,0,,,,,,
,,,,,html-keyboard-response,4,6890,0.0-4.0-0.0,166,1,2023-03-17 13:02:57,27d22b55943edf8b2830e96048e50989,"Mozilla/5.0 (iPhone; CPU iPhone OS 16_3_1 like Mac OS X) AppleWebKit/605.1.15 (KHTML, like Gecko) Version/16.3 Mobile/15E148 Safari/604.1",iPhone,Safari,16.3,iOS,16_3_1,null,null,fixation,,,,,
,,,,,image-button-response,5,44348,0.0-4.0-1.0,166,1,2023-03-17 13:02:57,27d22b55943edf8b2830e96048e50989,"Mozilla/5.0 (iPhone; CPU iPhone OS 16_3_1 like Mac OS X) AppleWebKit/605.1.15 (KHTML, like Gecko) Version/16.3 Mobile/15E148 Safari/604.1",iPhone,Safari,16.3,iOS,16_3_1,37444,4,response_1,Andrena flavipes,FALSE,,,
,,,,,html-keyboard-response,6,44608,0.0-4.0-0.1,166,1,2023-03-17 13:02:57,27d22b55943edf8b2830e96048e50989,"Mozilla/5.0 (iPhone; CPU iPhone OS 16_3_1 like Mac OS X) AppleWebKit/605.1.15 (KHTML, like Gecko) Version/16.3 Mobile/15E148 Safari/604.1",iPhone,Safari,16.3,iOS,16_3_1,null,null,fixation,,,,,
,,,,,image-button-response,7,58251,0.0-4.0-1.1,166,1,2023-03-17 13:02:57,27d22b55943edf8b2830e96048e50989,"Mozilla/5.0 (iPhone; CPU iPhone OS 16_3_1 like Mac OS X) AppleWebKit/605.1.15 (KHTML, like Gecko) Version/16.3 Mobile/15E148 Safari/604.1",iPhone,Safari,16.3,iOS,16_3_1,13634,3,response_1,Bombus hortorum,TRUE,,,
,,,,,html-keyboard-response,8,58505,0.0-4.0-0.2,166,1,2023-03-17 13:02:57,27d22b55943edf8b2830e96048e50989,"Mozilla/5.0 (iPhone; CPU iPhone OS 16_3_1 like Mac OS X) AppleWebKit/605.1.15 (KHTML, like Gecko) Version/16.3 Mobile/15E148 Safari/604.1",iPhone,Safari,16.3,iOS,16_3_1,null,null,fixation,,,,,
,,,,,image-button-response,9,103567,0.0-4.0-1.2,166,1,2023-03-17 13:02:57,27d22b55943edf8b2830e96048e50989,"Mozilla/5.0 (iPhone; CPU iPhone OS 16_3_1 like Mac OS X) AppleWebKit/605.1.15 (KHTML, like Gecko) Version/16.3 Mobile/15E148 Safari/604.1",iPhone,Safari,16.3,iOS,16_3_1,45054,3,response_1,Bombus lucorum,FALSE,,,
,,,,,html-keyboard-response,10,104072,0.0-4.0-0.3,166,1,2023-03-17 13:02:57,27d22b55943edf8b2830e96048e50989,"Mozilla/5.0 (iPhone; CPU iPhone OS 16_3_1 like Mac OS X) AppleWebKit/605.1.15 (KHTML, like Gecko) Version/16.3 Mobile/15E148 Safari/604.1",iPhone,Safari,16.3,iOS,16_3_1,null,null,fixation,,,,,
,,,,,image-button-response,11,171363,0.0-4.0-1.3,166,1,2023-03-17 13:02:57,27d22b55943edf8b2830e96048e50989,"Mozilla/5.0 (iPhone; CPU iPhone OS 16_3_1 like Mac OS X) AppleWebKit/605.1.15 (KHTML, like Gecko) Version/16.3 Mobile/15E148 Safari/604.1",iPhone,Safari,16.3,iOS,16_3_1,67256,1,response_1,Andrena bicolor,FALSE,,,
,,,,,html-keyboard-response,12,171869,0.0-4.0-0.4,166,1,2023-03-17 13:02:57,27d22b55943edf8b2830e96048e50989,"Mozilla/5.0 (iPhone; CPU iPhone OS 16_3_1 like Mac OS X) AppleWebKit/605.1.15 (KHTML, like Gecko) Version/16.3 Mobile/15E148 Safari/604.1",iPhone,Safari,16.3,iOS,16_3_1,null,null,fixation,,,,,
,,,,,image-button-response,13,239241,0.0-4.0-1.4,166,1,2023-03-17 13:02:57,27d22b55943edf8b2830e96048e50989,"Mozilla/5.0 (iPhone; CPU iPhone OS 16_3_1 like Mac OS X) AppleWebKit/605.1.15 (KHTML, like Gecko) Version/16.3 Mobile/15E148 Safari/604.1",iPhone,Safari,16.3,iOS,16_3_1,67349,5,response_1,Bombus pratorum,TRUE,,,
,,,,,html-keyboard-response,14,239997,0.0-4.0-0.5,166,1,2023-03-17 13:02:57,27d22b55943edf8b2830e96048e50989,"Mozilla/5.0 (iPhone; CPU iPhone OS 16_3_1 like Mac OS X) AppleWebKit/605.1.15 (KHTML, like Gecko) Version/16.3 Mobile/15E148 Safari/604.1",iPhone,Safari,16.3,iOS,16_3_1,null,null,fixation,,,,,
,,,,,image-button-response,15,277843,0.0-4.0-1.5,166,1,2023-03-17 13:02:57,27d22b55943edf8b2830e96048e50989,"Mozilla/5.0 (iPhone; CPU iPhone OS 16_3_1 like Mac OS X) AppleWebKit/605.1.15 (KHTML, like Gecko) Version/16.3 Mobile/15E148 Safari/604.1",iPhone,Safari,16.3,iOS,16_3_1,37829,0,response_1,Andrena bicolor,TRUE,,,
,,,,,html-button-response,16,304132,0.0-5.0,166,1,2023-03-17 13:02:57,27d22b55943edf8b2830e96048e50989,"Mozilla/5.0 (iPhone; CPU iPhone OS 16_3_1 like Mac OS X) AppleWebKit/605.1.15 (KHTML, like Gecko) Version/16.3 Mobile/15E148 Safari/604.1",iPhone,Safari,16.3,iOS,16_3_1,26283,0,,,,,,
,,,,,html-keyboard-response,17,304639,0.0-6.0-0.0,166,1,2023-03-17 13:02:57,27d22b55943edf8b2830e96048e50989,"Mozilla/5.0 (iPhone; CPU iPhone OS 16_3_1 like Mac OS X) AppleWebKit/605.1.15 (KHTML, like Gecko) Version/16.3 Mobile/15E148 Safari/604.1",iPhone,Safari,16.3,iOS,16_3_1,null,null,fixation,,,,,
,,,,,image-button-response,18,343678,0.0-6.0-1.0,166,1,2023-03-17 13:02:57,27d22b55943edf8b2830e96048e50989,"Mozilla/5.0 (iPhone; CPU iPhone OS 16_3_1 like Mac OS X) AppleWebKit/605.1.15 (KHTML, like Gecko) Version/16.3 Mobile/15E148 Safari/604.1",iPhone,Safari,16.3,iOS,16_3_1,39021,5,response_pred,Bombus pratorum,TRUE,Bombus lucorum,it has fuzzy yellow and black stripes,
,,,,,html-keyboard-response,19,344195,0.0-6.0-0.1,166,1,2023-03-17 13:02:57,27d22b55943edf8b2830e96048e50989,"Mozilla/5.0 (iPhone; CPU iPhone OS 16_3_1 like Mac OS X) AppleWebKit/605.1.15 (KHTML, like Gecko) Version/16.3 Mobile/15E148 Safari/604.1",iPhone,Safari,16.3,iOS,16_3_1,null,null,fixation,,,,,
,,,,,image-button-response,20,378618,0.0-6.0-1.1,166,1,2023-03-17 13:02:57,27d22b55943edf8b2830e96048e50989,"Mozilla/5.0 (iPhone; CPU iPhone OS 16_3_1 like Mac OS X) AppleWebKit/605.1.15 (KHTML, like Gecko) Version/16.3 Mobile/15E148 Safari/604.1",iPhone,Safari,16.3,iOS,16_3_1,34398,2,response_pred,Andrena fulva,TRUE,Andrena fulva,it is fuzzy dark orange and it has a smooth shiny dark brown texture,
,,,,,html-keyboard-response,21,379123,0.0-6.0-0.2,166,1,2023-03-17 13:02:57,27d22b55943edf8b2830e96048e50989,"Mozilla/5.0 (iPhone; CPU iPhone OS 16_3_1 like Mac OS X) AppleWebKit/605.1.15 (KHTML, like Gecko) Version/16.3 Mobile/15E148 Safari/604.1",iPhone,Safari,16.3,iOS,16_3_1,null,null,fixation,,,,,
,,,,,image-button-response,22,421627,0.0-6.0-1.2,166,1,2023-03-17 13:02:57,27d22b55943edf8b2830e96048e50989,"Mozilla/5.0 (iPhone; CPU iPhone OS 16_3_1 like Mac OS X) AppleWebKit/605.1.15 (KHTML, like Gecko) Version/16.3 Mobile/15E148 Safari/604.1",iPhone,Safari,16.3,iOS,16_3_1,42473,4,response_pred,Bombus lucorum,TRUE,Bombus hortorum,it has fuzzy yellow and black stripes,
,,,,,html-keyboard-response,23,422132,0.0-6.0-0.3,166,1,2023-03-17 13:02:57,27d22b55943edf8b2830e96048e50989,"Mozilla/5.0 (iPhone; CPU iPhone OS 16_3_1 like Mac OS X) AppleWebKit/605.1.15 (KHTML, like Gecko) Version/16.3 Mobile/15E148 Safari/604.1",iPhone,Safari,16.3,iOS,16_3_1,null,null,fixation,,,,,
,,,,,image-button-response,24,454139,0.0-6.0-1.3,166,1,2023-03-17 13:02:57,27d22b55943edf8b2830e96048e50989,"Mozilla/5.0 (iPhone; CPU iPhone OS 16_3_1 like Mac OS X) AppleWebKit/605.1.15 (KHTML, like Gecko) Version/16.3 Mobile/15E148 Safari/604.1",iPhone,Safari,16.3,iOS,16_3_1,31973,1,response_pred,Andrena flavipes,TRUE,Andrena flavipes,it has a smooth shiny dark brown texture,
,,,,,html-keyboard-response,25,454393,0.0-6.0-0.4,166,1,2023-03-17 13:02:57,27d22b55943edf8b2830e96048e50989,"Mozilla/5.0 (iPhone; CPU iPhone OS 16_3_1 like Mac OS X) AppleWebKit/605.1.15 (KHTML, like Gecko) Version/16.3 Mobile/15E148 Safari/604.1",iPhone,Safari,16.3,iOS,16_3_1,null,null,fixation,,,,,
,,,,,image-button-response,26,484243,0.0-6.0-1.4,166,1,2023-03-17 13:02:57,27d22b55943edf8b2830e96048e50989,"Mozilla/5.0 (iPhone; CPU iPhone OS 16_3_1 like Mac OS X) AppleWebKit/605.1.15 (KHTML, like Gecko) Version/16.3 Mobile/15E148 Safari/604.1",iPhone,Safari,16.3,iOS,16_3_1,29844,0,response_pred,Andrena bicolor,TRUE,Andrena bicolor,it is fuzzy dark orange and it has a smooth shiny dark brown texture,
,,,,,html-keyboard-response,27,484505,0.0-6.0-0.5,166,1,2023-03-17 13:02:57,27d22b55943edf8b2830e96048e50989,"Mozilla/5.0 (iPhone; CPU iPhone OS 16_3_1 like Mac OS X) AppleWebKit/605.1.15 (KHTML, like Gecko) Version/16.3 Mobile/15E148 Safari/604.1",iPhone,Safari,16.3,iOS,16_3_1,null,null,fixation,,,,,
,,,,,image-button-response,28,504029,0.0-6.0-1.5,166,1,2023-03-17 13:02:57,27d22b55943edf8b2830e96048e50989,"Mozilla/5.0 (iPhone; CPU iPhone OS 16_3_1 like Mac OS X) AppleWebKit/605.1.15 (KHTML, like Gecko) Version/16.3 Mobile/15E148 Safari/604.1",iPhone,Safari,16.3,iOS,16_3_1,19492,5,response_pred,Bombus hortorum,FALSE,Bombus pratorum,it has fuzzy yellow and black stripes,
