success,timeout,failed_images,failed_audio,failed_video,trial_type,trial_index,time_elapsed,internal_node_id,run_id,condition,recorded_at,source_code_version,user_agent,device,browser,browser_version,platform,platform_version,rt,response,task,correct_response,correct,pred_class,fbclid
TRUE,FALSE,[],[],[],preload,0,681,0.0-0.0,11,1,2023-03-14 19:48:30,95c447948bfde634df5be7bb21c2f1af,"Mozilla/5.0 (Windows NT 10.0; Win64; x64) AppleWebKit/537.36 (KHTML, like Gecko) Chrome/111.0.0.0 Safari/537.36",WebKit,Chrome,111.0.0.0,Windows,10,,,,,,,
,,,,,html-button-response,1,4350,0.0-1.0,11,1,2023-03-14 19:48:30,95c447948bfde634df5be7bb21c2f1af,"Mozilla/5.0 (Windows NT 10.0; Win64; x64) AppleWebKit/537.36 (KHTML, like Gecko) Chrome/111.0.0.0 Safari/537.36",WebKit,Chrome,111.0.0.0,Windows,10,3667,0,,,,,
,,,,,html-button-response,2,19608,0.0-2.0,11,1,2023-03-14 19:48:30,95c447948bfde634df5be7bb21c2f1af,"Mozilla/5.0 (Windows NT 10.0; Win64; x64) AppleWebKit/537.36 (KHTML, like Gecko) Chrome/111.0.0.0 Safari/537.36",WebKit,Chrome,111.0.0.0,Windows,10,15256,0,,,,,
,,,,,html-button-response,3,89989,0.0-3.0,11,1,2023-03-14 19:48:30,95c447948bfde634df5be7bb21c2f1af,"Mozilla/5.0 (Windows NT 10.0; Win64; x64) AppleWebKit/537.36 (KHTML, like Gecko) Chrome/111.0.0.0 Safari/537.36",WebKit,Chrome,111.0.0.0,Windows,10,70380,0,,,,,
,,,,,html-keyboard-response,4,91511,0.0-4.0-0.0,11,1,2023-03-14 19:48:30,95c447948bfde634df5be7bb21c2f1af,"Mozilla/5.0 (Windows NT 10.0; Win64; x64) AppleWebKit/537.36 (KHTML, like Gecko) Chrome/111.0.0.0 Safari/537.36",WebKit,Chrome,111.0.0.0,Windows,10,null,null,fixation,,,,
,,,,,image-button-response,5,110076,0.0-4.0-1.0,11,1,2023-03-14 19:48:30,95c447948bfde634df5be7bb21c2f1af,"Mozilla/5.0 (Windows NT 10.0; Win64; x64) AppleWebKit/537.36 (KHTML, like Gecko) Chrome/111.0.0.0 Safari/537.36",WebKit,Chrome,111.0.0.0,Windows,10,18555,1,response_1,Andrena flavipes,TRUE,,
,,,,,html-keyboard-response,6,110338,0.0-4.0-0.1,11,1,2023-03-14 19:48:30,95c447948bfde634df5be7bb21c2f1af,"Mozilla/5.0 (Windows NT 10.0; Win64; x64) AppleWebKit/537.36 (KHTML, like Gecko) Chrome/111.0.0.0 Safari/537.36",WebKit,Chrome,111.0.0.0,Windows,10,null,null,fixation,,,,
,,,,,image-button-response,7,129664,0.0-4.0-1.1,11,1,2023-03-14 19:48:30,95c447948bfde634df5be7bb21c2f1af,"Mozilla/5.0 (Windows NT 10.0; Win64; x64) AppleWebKit/537.36 (KHTML, like Gecko) Chrome/111.0.0.0 Safari/537.36",WebKit,Chrome,111.0.0.0,Windows,10,19320,0,response_1,Andrena flavipes,FALSE,,
,,,,,html-keyboard-response,8,129923,0.0-4.0-0.2,11,1,2023-03-14 19:48:30,95c447948bfde634df5be7bb21c2f1af,"Mozilla/5.0 (Windows NT 10.0; Win64; x64) AppleWebKit/537.36 (KHTML, like Gecko) Chrome/111.0.0.0 Safari/537.36",WebKit,Chrome,111.0.0.0,Windows,10,null,null,fixation,,,,
,,,,,image-button-response,9,157300,0.0-4.0-1.2,11,1,2023-03-14 19:48:30,95c447948bfde634df5be7bb21c2f1af,"Mozilla/5.0 (Windows NT 10.0; Win64; x64) AppleWebKit/537.36 (KHTML, like Gecko) Chrome/111.0.0.0 Safari/537.36",WebKit,Chrome,111.0.0.0,Windows,10,27371,5,response_1,Bombus lucorum,FALSE,,
,,,,,html-keyboard-response,10,157806,0.0-4.0-0.3,11,1,2023-03-14 19:48:30,95c447948bfde634df5be7bb21c2f1af,"Mozilla/5.0 (Windows NT 10.0; Win64; x64) AppleWebKit/537.36 (KHTML, like Gecko) Chrome/111.0.0.0 Safari/537.36",WebKit,Chrome,111.0.0.0,Windows,10,null,null,fixation,,,,
,,,,,image-button-response,11,173970,0.0-4.0-1.3,11,1,2023-03-14 19:48:30,95c447948bfde634df5be7bb21c2f1af,"Mozilla/5.0 (Windows NT 10.0; Win64; x64) AppleWebKit/537.36 (KHTML, like Gecko) Chrome/111.0.0.0 Safari/537.36",WebKit,Chrome,111.0.0.0,Windows,10,16165,4,response_1,Bombus pratorum,FALSE,,
,,,,,html-keyboard-response,12,174473,0.0-4.0-0.4,11,1,2023-03-14 19:48:30,95c447948bfde634df5be7bb21c2f1af,"Mozilla/5.0 (Windows NT 10.0; Win64; x64) AppleWebKit/537.36 (KHTML, like Gecko) Chrome/111.0.0.0 Safari/537.36",WebKit,Chrome,111.0.0.0,Windows,10,null,null,fixation,,,,
,,,,,image-button-response,13,187033,0.0-4.0-1.4,11,1,2023-03-14 19:48:30,95c447948bfde634df5be7bb21c2f1af,"Mozilla/5.0 (Windows NT 10.0; Win64; x64) AppleWebKit/537.36 (KHTML, like Gecko) Chrome/111.0.0.0 Safari/537.36",WebKit,Chrome,111.0.0.0,Windows,10,12552,3,response_1,Bombus hortorum,TRUE,,
,,,,,html-keyboard-response,14,187790,0.0-4.0-0.5,11,1,2023-03-14 19:48:30,95c447948bfde634df5be7bb21c2f1af,"Mozilla/5.0 (Windows NT 10.0; Win64; x64) AppleWebKit/537.36 (KHTML, like Gecko) Chrome/111.0.0.0 Safari/537.36",WebKit,Chrome,111.0.0.0,Windows,10,null,null,fixation,,,,
,,,,,image-button-response,15,198832,0.0-4.0-1.5,11,1,2023-03-14 19:48:30,95c447948bfde634df5be7bb21c2f1af,"Mozilla/5.0 (Windows NT 10.0; Win64; x64) AppleWebKit/537.36 (KHTML, like Gecko) Chrome/111.0.0.0 Safari/537.36",WebKit,Chrome,111.0.0.0,Windows,10,11035,4,response_1,Bombus hortorum,FALSE,,
,,,,,html-button-response,16,211224,0.0-5.0,11,1,2023-03-14 19:48:30,95c447948bfde634df5be7bb21c2f1af,"Mozilla/5.0 (Windows NT 10.0; Win64; x64) AppleWebKit/537.36 (KHTML, like Gecko) Chrome/111.0.0.0 Safari/537.36",WebKit,Chrome,111.0.0.0,Windows,10,12388,0,,,,,
,,,,,html-keyboard-response,17,211482,0.0-6.0-0.0,11,1,2023-03-14 19:48:30,95c447948bfde634df5be7bb21c2f1af,"Mozilla/5.0 (Windows NT 10.0; Win64; x64) AppleWebKit/537.36 (KHTML, like Gecko) Chrome/111.0.0.0 Safari/537.36",WebKit,Chrome,111.0.0.0,Windows,10,null,null,fixation,,,,
,,,,,image-button-response,18,218293,0.0-6.0-1.0,11,1,2023-03-14 19:48:30,95c447948bfde634df5be7bb21c2f1af,"Mozilla/5.0 (Windows NT 10.0; Win64; x64) AppleWebKit/537.36 (KHTML, like Gecko) Chrome/111.0.0.0 Safari/537.36",WebKit,Chrome,111.0.0.0,Windows,10,6804,1,response_pred,Andrena bicolor,FALSE,Andrena bicolor,
,,,,,html-keyboard-response,19,218809,0.0-6.0-0.1,11,1,2023-03-14 19:48:30,95c447948bfde634df5be7bb21c2f1af,"Mozilla/5.0 (Windows NT 10.0; Win64; x64) AppleWebKit/537.36 (KHTML, like Gecko) Chrome/111.0.0.0 Safari/537.36",WebKit,Chrome,111.0.0.0,Windows,10,null,null,fixation,,,,
,,,,,image-button-response,20,230718,0.0-6.0-1.1,11,1,2023-03-14 19:48:30,95c447948bfde634df5be7bb21c2f1af,"Mozilla/5.0 (Windows NT 10.0; Win64; x64) AppleWebKit/537.36 (KHTML, like Gecko) Chrome/111.0.0.0 Safari/537.36",WebKit,Chrome,111.0.0.0,Windows,10,11902,3,response_pred,Bombus lucorum,FALSE,Bombus hortorum,
,,,,,html-keyboard-response,21,230987,0.0-6.0-0.2,11,1,2023-03-14 19:48:30,95c447948bfde634df5be7bb21c2f1af,"Mozilla/5.0 (Windows NT 10.0; Win64; x64) AppleWebKit/537.36 (KHTML, like Gecko) Chrome/111.0.0.0 Safari/537.36",WebKit,Chrome,111.0.0.0,Windows,10,null,null,fixation,,,,
,,,,,image-button-response,22,239223,0.0-6.0-1.2,11,1,2023-03-14 19:48:30,95c447948bfde634df5be7bb21c2f1af,"Mozilla/5.0 (Windows NT 10.0; Win64; x64) AppleWebKit/537.36 (KHTML, like Gecko) Chrome/111.0.0.0 Safari/537.36",WebKit,Chrome,111.0.0.0,Windows,10,8229,5,response_pred,Bombus pratorum,TRUE,Bombus lucorum,
,,,,,html-keyboard-response,23,239736,0.0-6.0-0.3,11,1,2023-03-14 19:48:30,95c447948bfde634df5be7bb21c2f1af,"Mozilla/5.0 (Windows NT 10.0; Win64; x64) AppleWebKit/537.36 (KHTML, like Gecko) Chrome/111.0.0.0 Safari/537.36",WebKit,Chrome,111.0.0.0,Windows,10,null,null,fixation,,,,
,,,,,image-button-response,24,246003,0.0-6.0-1.3,11,1,2023-03-14 19:48:30,95c447948bfde634df5be7bb21c2f1af,"Mozilla/5.0 (Windows NT 10.0; Win64; x64) AppleWebKit/537.36 (KHTML, like Gecko) Chrome/111.0.0.0 Safari/537.36",WebKit,Chrome,111.0.0.0,Windows,10,6262,4,response_pred,Bombus hortorum,FALSE,Bombus pratorum,
,,,,,html-keyboard-response,25,246757,0.0-6.0-0.4,11,1,2023-03-14 19:48:30,95c447948bfde634df5be7bb21c2f1af,"Mozilla/5.0 (Windows NT 10.0; Win64; x64) AppleWebKit/537.36 (KHTML, like Gecko) Chrome/111.0.0.0 Safari/537.36",WebKit,Chrome,111.0.0.0,Windows,10,null,null,fixation,,,,
,,,,,image-button-response,26,253505,0.0-6.0-1.4,11,1,2023-03-14 19:48:30,95c447948bfde634df5be7bb21c2f1af,"Mozilla/5.0 (Windows NT 10.0; Win64; x64) AppleWebKit/537.36 (KHTML, like Gecko) Chrome/111.0.0.0 Safari/537.36",WebKit,Chrome,111.0.0.0,Windows,10,6741,2,response_pred,Andrena fulva,TRUE,Andrena fulva,
,,,,,html-keyboard-response,27,253772,0.0-6.0-0.5,11,1,2023-03-14 19:48:30,95c447948bfde634df5be7bb21c2f1af,"Mozilla/5.0 (Windows NT 10.0; Win64; x64) AppleWebKit/537.36 (KHTML, like Gecko) Chrome/111.0.0.0 Safari/537.36",WebKit,Chrome,111.0.0.0,Windows,10,null,null,fixation,,,,
,,,,,image-button-response,28,258550,0.0-6.0-1.5,11,1,2023-03-14 19:48:30,95c447948bfde634df5be7bb21c2f1af,"Mozilla/5.0 (Windows NT 10.0; Win64; x64) AppleWebKit/537.36 (KHTML, like Gecko) Chrome/111.0.0.0 Safari/537.36",WebKit,Chrome,111.0.0.0,Windows,10,4771,1,response_pred,Andrena flavipes,TRUE,Andrena flavipes,
,,,,,html-button-response,29,265621,0.0-7.0,11,1,2023-03-14 19:48:30,95c447948bfde634df5be7bb21c2f1af,"Mozilla/5.0 (Windows NT 10.0; Win64; x64) AppleWebKit/537.36 (KHTML, like Gecko) Chrome/111.0.0.0 Safari/537.36",WebKit,Chrome,111.0.0.0,Windows,10,7067,0,,,,,
,,,,,html-keyboard-response,30,266125,0.0-8.0-0.0,11,1,2023-03-14 19:48:30,95c447948bfde634df5be7bb21c2f1af,"Mozilla/5.0 (Windows NT 10.0; Win64; x64) AppleWebKit/537.36 (KHTML, like Gecko) Chrome/111.0.0.0 Safari/537.36",WebKit,Chrome,111.0.0.0,Windows,10,null,null,fixation,,,,
,,,,,image-button-response,31,275088,0.0-8.0-1.0,11,1,2023-03-14 19:48:30,95c447948bfde634df5be7bb21c2f1af,"Mozilla/5.0 (Windows NT 10.0; Win64; x64) AppleWebKit/537.36 (KHTML, like Gecko) Chrome/111.0.0.0 Safari/537.36",WebKit,Chrome,111.0.0.0,Windows,10,8959,0,response_2,Andrena bicolor,TRUE,,
,,,,,html-keyboard-response,32,275855,0.0-8.0-0.1,11,1,2023-03-14 19:48:30,95c447948bfde634df5be7bb21c2f1af,"Mozilla/5.0 (Windows NT 10.0; Win64; x64) AppleWebKit/537.36 (KHTML, like Gecko) Chrome/111.0.0.0 Safari/537.36",WebKit,Chrome,111.0.0.0,Windows,10,null,null,fixation,,,,
,,,,,image-button-response,33,296460,0.0-8.0-1.1,11,1,2023-03-14 19:48:30,95c447948bfde634df5be7bb21c2f1af,"Mozilla/5.0 (Windows NT 10.0; Win64; x64) AppleWebKit/537.36 (KHTML, like Gecko) Chrome/111.0.0.0 Safari/537.36",WebKit,Chrome,111.0.0.0,Windows,10,20600,2,response_2,Andrena fulva,TRUE,,
,,,,,html-keyboard-response,34,297223,0.0-8.0-0.2,11,1,2023-03-14 19:48:30,95c447948bfde634df5be7bb21c2f1af,"Mozilla/5.0 (Windows NT 10.0; Win64; x64) AppleWebKit/537.36 (KHTML, like Gecko) Chrome/111.0.0.0 Safari/537.36",WebKit,Chrome,111.0.0.0,Windows,10,null,null,fixation,,,,
,,,,,image-button-response,35,321058,0.0-8.0-1.2,11,1,2023-03-14 19:48:30,95c447948bfde634df5be7bb21c2f1af,"Mozilla/5.0 (Windows NT 10.0; Win64; x64) AppleWebKit/537.36 (KHTML, like Gecko) Chrome/111.0.0.0 Safari/537.36",WebKit,Chrome,111.0.0.0,Windows,10,23830,4,response_2,Bombus lucorum,TRUE,,
,,,,,html-keyboard-response,36,321322,0.0-8.0-0.3,11,1,2023-03-14 19:48:30,95c447948bfde634df5be7bb21c2f1af,"Mozilla/5.0 (Windows NT 10.0; Win64; x64) AppleWebKit/537.36 (KHTML, like Gecko) Chrome/111.0.0.0 Safari/537.36",WebKit,Chrome,111.0.0.0,Windows,10,null,null,fixation,,,,
,,,,,image-button-response,37,331006,0.0-8.0-1.3,11,1,2023-03-14 19:48:30,95c447948bfde634df5be7bb21c2f1af,"Mozilla/5.0 (Windows NT 10.0; Win64; x64) AppleWebKit/537.36 (KHTML, like Gecko) Chrome/111.0.0.0 Safari/537.36",WebKit,Chrome,111.0.0.0,Windows,10,9676,0,response_2,Andrena fulva,FALSE,,
,,,,,html-keyboard-response,38,331773,0.0-8.0-0.4,11,1,2023-03-14 19:48:30,95c447948bfde634df5be7bb21c2f1af,"Mozilla/5.0 (Windows NT 10.0; Win64; x64) AppleWebKit/537.36 (KHTML, like Gecko) Chrome/111.0.0.0 Safari/537.36",WebKit,Chrome,111.0.0.0,Windows,10,null,null,fixation,,,,
,,,,,image-button-response,39,346038,0.0-8.0-1.4,11,1,2023-03-14 19:48:30,95c447948bfde634df5be7bb21c2f1af,"Mozilla/5.0 (Windows NT 10.0; Win64; x64) AppleWebKit/537.36 (KHTML, like Gecko) Chrome/111.0.0.0 Safari/537.36",WebKit,Chrome,111.0.0.0,Windows,10,14260,5,response_2,Bombus pratorum,TRUE,,
,,,,,html-keyboard-response,40,346307,0.0-8.0-0.5,11,1,2023-03-14 19:48:30,95c447948bfde634df5be7bb21c2f1af,"Mozilla/5.0 (Windows NT 10.0; Win64; x64) AppleWebKit/537.36 (KHTML, like Gecko) Chrome/111.0.0.0 Safari/537.36",WebKit,Chrome,111.0.0.0,Windows,10,null,null,fixation,,,,
,,,,,image-button-response,41,359856,0.0-8.0-1.5,11,1,2023-03-14 19:48:30,95c447948bfde634df5be7bb21c2f1af,"Mozilla/5.0 (Windows NT 10.0; Win64; x64) AppleWebKit/537.36 (KHTML, like Gecko) Chrome/111.0.0.0 Safari/537.36",WebKit,Chrome,111.0.0.0,Windows,10,13540,2,response_2,Andrena bicolor,FALSE,,
,,,,,html-button-response,42,364458,0.0-9.0,11,1,2023-03-14 19:48:30,95c447948bfde634df5be7bb21c2f1af,"Mozilla/5.0 (Windows NT 10.0; Win64; x64) AppleWebKit/537.36 (KHTML, like Gecko) Chrome/111.0.0.0 Safari/537.36",WebKit,Chrome,111.0.0.0,Windows,10,4593,0,,,,,
,,,,,html-button-response,43,366911,0.0-10.0,11,1,2023-03-14 19:48:30,95c447948bfde634df5be7bb21c2f1af,"Mozilla/5.0 (Windows NT 10.0; Win64; x64) AppleWebKit/537.36 (KHTML, like Gecko) Chrome/111.0.0.0 Safari/537.36",WebKit,Chrome,111.0.0.0,Windows,10,2448,0,,,,,
TRUE,FALSE,[],[],[],preload,0,387,0.0-0.0,23,1,2023-03-15 15:26:11,95c447948bfde634df5be7bb21c2f1af,"Mozilla/5.0 (Windows NT 10.0; Win64; x64) AppleWebKit/537.36 (KHTML, like Gecko) Chrome/111.0.0.0 Safari/537.36",WebKit,Chrome,111.0.0.0,Windows,10,,,,,,,IwAR29eiYR9dKryt0AooSnqok4fzHnwfPqgFvyae82WompZBfFZRQ_snz8JDE
,,,,,html-button-response,1,15023,0.0-1.0,23,1,2023-03-15 15:26:11,95c447948bfde634df5be7bb21c2f1af,"Mozilla/5.0 (Windows NT 10.0; Win64; x64) AppleWebKit/537.36 (KHTML, like Gecko) Chrome/111.0.0.0 Safari/537.36",WebKit,Chrome,111.0.0.0,Windows,10,14631,0,,,,,IwAR29eiYR9dKryt0AooSnqok4fzHnwfPqgFvyae82WompZBfFZRQ_snz8JDE
,,,,,html-button-response,2,55409,0.0-2.0,23,1,2023-03-15 15:26:11,95c447948bfde634df5be7bb21c2f1af,"Mozilla/5.0 (Windows NT 10.0; Win64; x64) AppleWebKit/537.36 (KHTML, like Gecko) Chrome/111.0.0.0 Safari/537.36",WebKit,Chrome,111.0.0.0,Windows,10,40384,0,,,,,IwAR29eiYR9dKryt0AooSnqok4fzHnwfPqgFvyae82WompZBfFZRQ_snz8JDE
,,,,,html-button-response,3,273216,0.0-3.0,23,1,2023-03-15 15:26:11,95c447948bfde634df5be7bb21c2f1af,"Mozilla/5.0 (Windows NT 10.0; Win64; x64) AppleWebKit/537.36 (KHTML, like Gecko) Chrome/111.0.0.0 Safari/537.36",WebKit,Chrome,111.0.0.0,Windows,10,217801,0,,,,,IwAR29eiYR9dKryt0AooSnqok4fzHnwfPqgFvyae82WompZBfFZRQ_snz8JDE
,,,,,html-keyboard-response,4,274730,0.0-4.0-0.0,23,1,2023-03-15 15:26:11,95c447948bfde634df5be7bb21c2f1af,"Mozilla/5.0 (Windows NT 10.0; Win64; x64) AppleWebKit/537.36 (KHTML, like Gecko) Chrome/111.0.0.0 Safari/537.36",WebKit,Chrome,111.0.0.0,Windows,10,null,null,fixation,,,,IwAR29eiYR9dKryt0AooSnqok4fzHnwfPqgFvyae82WompZBfFZRQ_snz8JDE
,,,,,image-button-response,5,344085,0.0-4.0-1.0,23,1,2023-03-15 15:26:11,95c447948bfde634df5be7bb21c2f1af,"Mozilla/5.0 (Windows NT 10.0; Win64; x64) AppleWebKit/537.36 (KHTML, like Gecko) Chrome/111.0.0.0 Safari/537.36",WebKit,Chrome,111.0.0.0,Windows,10,69334,5,response_1,Bombus lucorum,FALSE,,IwAR29eiYR9dKryt0AooSnqok4fzHnwfPqgFvyae82WompZBfFZRQ_snz8JDE
,,,,,html-keyboard-response,6,344592,0.0-4.0-0.1,23,1,2023-03-15 15:26:11,95c447948bfde634df5be7bb21c2f1af,"Mozilla/5.0 (Windows NT 10.0; Win64; x64) AppleWebKit/537.36 (KHTML, like Gecko) Chrome/111.0.0.0 Safari/537.36",WebKit,Chrome,111.0.0.0,Windows,10,null,null,fixation,,,,IwAR29eiYR9dKryt0AooSnqok4fzHnwfPqgFvyae82WompZBfFZRQ_snz8JDE
,,,,,image-button-response,7,418962,0.0-4.0-1.1,23,1,2023-03-15 15:26:11,95c447948bfde634df5be7bb21c2f1af,"Mozilla/5.0 (Windows NT 10.0; Win64; x64) AppleWebKit/537.36 (KHTML, like Gecko) Chrome/111.0.0.0 Safari/537.36",WebKit,Chrome,111.0.0.0,Windows,10,74363,0,response_1,Andrena flavipes,FALSE,,IwAR29eiYR9dKryt0AooSnqok4fzHnwfPqgFvyae82WompZBfFZRQ_snz8JDE
,,,,,html-keyboard-response,8,419226,0.0-4.0-0.2,23,1,2023-03-15 15:26:11,95c447948bfde634df5be7bb21c2f1af,"Mozilla/5.0 (Windows NT 10.0; Win64; x64) AppleWebKit/537.36 (KHTML, like Gecko) Chrome/111.0.0.0 Safari/537.36",WebKit,Chrome,111.0.0.0,Windows,10,null,null,fixation,,,,IwAR29eiYR9dKryt0AooSnqok4fzHnwfPqgFvyae82WompZBfFZRQ_snz8JDE
,,,,,image-button-response,9,458522,0.0-4.0-1.2,23,1,2023-03-15 15:26:11,95c447948bfde634df5be7bb21c2f1af,"Mozilla/5.0 (Windows NT 10.0; Win64; x64) AppleWebKit/537.36 (KHTML, like Gecko) Chrome/111.0.0.0 Safari/537.36",WebKit,Chrome,111.0.0.0,Windows,10,39290,5,response_1,Bombus lucorum,FALSE,,IwAR29eiYR9dKryt0AooSnqok4fzHnwfPqgFvyae82WompZBfFZRQ_snz8JDE
,,,,,html-keyboard-response,10,458788,0.0-4.0-0.3,23,1,2023-03-15 15:26:11,95c447948bfde634df5be7bb21c2f1af,"Mozilla/5.0 (Windows NT 10.0; Win64; x64) AppleWebKit/537.36 (KHTML, like Gecko) Chrome/111.0.0.0 Safari/537.36",WebKit,Chrome,111.0.0.0,Windows,10,null,null,fixation,,,,IwAR29eiYR9dKryt0AooSnqok4fzHnwfPqgFvyae82WompZBfFZRQ_snz8JDE
,,,,,image-button-response,11,475117,0.0-4.0-1.3,23,1,2023-03-15 15:26:11,95c447948bfde634df5be7bb21c2f1af,"Mozilla/5.0 (Windows NT 10.0; Win64; x64) AppleWebKit/537.36 (KHTML, like Gecko) Chrome/111.0.0.0 Safari/537.36",WebKit,Chrome,111.0.0.0,Windows,10,16324,2,response_1,Andrena fulva,TRUE,,IwAR29eiYR9dKryt0AooSnqok4fzHnwfPqgFvyae82WompZBfFZRQ_snz8JDE
,,,,,html-keyboard-response,12,475875,0.0-4.0-0.4,23,1,2023-03-15 15:26:11,95c447948bfde634df5be7bb21c2f1af,"Mozilla/5.0 (Windows NT 10.0; Win64; x64) AppleWebKit/537.36 (KHTML, like Gecko) Chrome/111.0.0.0 Safari/537.36",WebKit,Chrome,111.0.0.0,Windows,10,null,null,fixation,,,,IwAR29eiYR9dKryt0AooSnqok4fzHnwfPqgFvyae82WompZBfFZRQ_snz8JDE
,,,,,image-button-response,13,532872,0.0-4.0-1.4,23,1,2023-03-15 15:26:11,95c447948bfde634df5be7bb21c2f1af,"Mozilla/5.0 (Windows NT 10.0; Win64; x64) AppleWebKit/537.36 (KHTML, like Gecko) Chrome/111.0.0.0 Safari/537.36",WebKit,Chrome,111.0.0.0,Windows,10,56992,3,response_1,Bombus hortorum,TRUE,,IwAR29eiYR9dKryt0AooSnqok4fzHnwfPqgFvyae82WompZBfFZRQ_snz8JDE
,,,,,html-keyboard-response,14,533383,0.0-4.0-0.5,23,1,2023-03-15 15:26:11,95c447948bfde634df5be7bb21c2f1af,"Mozilla/5.0 (Windows NT 10.0; Win64; x64) AppleWebKit/537.36 (KHTML, like Gecko) Chrome/111.0.0.0 Safari/537.36",WebKit,Chrome,111.0.0.0,Windows,10,null,null,fixation,,,,IwAR29eiYR9dKryt0AooSnqok4fzHnwfPqgFvyae82WompZBfFZRQ_snz8JDE
,,,,,image-button-response,15,546116,0.0-4.0-1.5,23,1,2023-03-15 15:26:11,95c447948bfde634df5be7bb21c2f1af,"Mozilla/5.0 (Windows NT 10.0; Win64; x64) AppleWebKit/537.36 (KHTML, like Gecko) Chrome/111.0.0.0 Safari/537.36",WebKit,Chrome,111.0.0.0,Windows,10,12737,5,response_1,Bombus pratorum,TRUE,,IwAR29eiYR9dKryt0AooSnqok4fzHnwfPqgFvyae82WompZBfFZRQ_snz8JDE
,,,,,html-button-response,16,615651,0.0-5.0,23,1,2023-03-15 15:26:11,95c447948bfde634df5be7bb21c2f1af,"Mozilla/5.0 (Windows NT 10.0; Win64; x64) AppleWebKit/537.36 (KHTML, like Gecko) Chrome/111.0.0.0 Safari/537.36",WebKit,Chrome,111.0.0.0,Windows,10,69521,0,,,,,IwAR29eiYR9dKryt0AooSnqok4fzHnwfPqgFvyae82WompZBfFZRQ_snz8JDE
,,,,,html-keyboard-response,17,616413,0.0-6.0-0.0,23,1,2023-03-15 15:26:11,95c447948bfde634df5be7bb21c2f1af,"Mozilla/5.0 (Windows NT 10.0; Win64; x64) AppleWebKit/537.36 (KHTML, like Gecko) Chrome/111.0.0.0 Safari/537.36",WebKit,Chrome,111.0.0.0,Windows,10,null,null,fixation,,,,IwAR29eiYR9dKryt0AooSnqok4fzHnwfPqgFvyae82WompZBfFZRQ_snz8JDE
,,,,,image-button-response,18,653354,0.0-6.0-1.0,23,1,2023-03-15 15:26:11,95c447948bfde634df5be7bb21c2f1af,"Mozilla/5.0 (Windows NT 10.0; Win64; x64) AppleWebKit/537.36 (KHTML, like Gecko) Chrome/111.0.0.0 Safari/537.36",WebKit,Chrome,111.0.0.0,Windows,10,36935,0,response_pred,Andrena bicolor,TRUE,Andrena bicolor,IwAR29eiYR9dKryt0AooSnqok4fzHnwfPqgFvyae82WompZBfFZRQ_snz8JDE
,,,,,html-keyboard-response,19,654111,0.0-6.0-0.1,23,1,2023-03-15 15:26:11,95c447948bfde634df5be7bb21c2f1af,"Mozilla/5.0 (Windows NT 10.0; Win64; x64) AppleWebKit/537.36 (KHTML, like Gecko) Chrome/111.0.0.0 Safari/537.36",WebKit,Chrome,111.0.0.0,Windows,10,null,null,fixation,,,,IwAR29eiYR9dKryt0AooSnqok4fzHnwfPqgFvyae82WompZBfFZRQ_snz8JDE
,,,,,image-button-response,20,681494,0.0-6.0-1.1,23,1,2023-03-15 15:26:11,95c447948bfde634df5be7bb21c2f1af,"Mozilla/5.0 (Windows NT 10.0; Win64; x64) AppleWebKit/537.36 (KHTML, like Gecko) Chrome/111.0.0.0 Safari/537.36",WebKit,Chrome,111.0.0.0,Windows,10,27378,2,response_pred,Andrena fulva,TRUE,Andrena fulva,IwAR29eiYR9dKryt0AooSnqok4fzHnwfPqgFvyae82WompZBfFZRQ_snz8JDE
,,,,,html-keyboard-response,21,682260,0.0-6.0-0.2,23,1,2023-03-15 15:26:11,95c447948bfde634df5be7bb21c2f1af,"Mozilla/5.0 (Windows NT 10.0; Win64; x64) AppleWebKit/537.36 (KHTML, like Gecko) Chrome/111.0.0.0 Safari/537.36",WebKit,Chrome,111.0.0.0,Windows,10,null,null,fixation,,,,IwAR29eiYR9dKryt0AooSnqok4fzHnwfPqgFvyae82WompZBfFZRQ_snz8JDE
,,,,,image-button-response,22,703180,0.0-6.0-1.2,23,1,2023-03-15 15:26:11,95c447948bfde634df5be7bb21c2f1af,"Mozilla/5.0 (Windows NT 10.0; Win64; x64) AppleWebKit/537.36 (KHTML, like Gecko) Chrome/111.0.0.0 Safari/537.36",WebKit,Chrome,111.0.0.0,Windows,10,20914,3,response_pred,Bombus lucorum,FALSE,Bombus hortorum,IwAR29eiYR9dKryt0AooSnqok4fzHnwfPqgFvyae82WompZBfFZRQ_snz8JDE
,,,,,html-keyboard-response,23,703938,0.0-6.0-0.3,23,1,2023-03-15 15:26:11,95c447948bfde634df5be7bb21c2f1af,"Mozilla/5.0 (Windows NT 10.0; Win64; x64) AppleWebKit/537.36 (KHTML, like Gecko) Chrome/111.0.0.0 Safari/537.36",WebKit,Chrome,111.0.0.0,Windows,10,null,null,fixation,,,,IwAR29eiYR9dKryt0AooSnqok4fzHnwfPqgFvyae82WompZBfFZRQ_snz8JDE
,,,,,image-button-response,24,714992,0.0-6.0-1.3,23,1,2023-03-15 15:26:11,95c447948bfde634df5be7bb21c2f1af,"Mozilla/5.0 (Windows NT 10.0; Win64; x64) AppleWebKit/537.36 (KHTML, like Gecko) Chrome/111.0.0.0 Safari/537.36",WebKit,Chrome,111.0.0.0,Windows,10,11049,4,response_pred,Bombus pratorum,FALSE,Bombus lucorum,IwAR29eiYR9dKryt0AooSnqok4fzHnwfPqgFvyae82WompZBfFZRQ_snz8JDE
,,,,,html-keyboard-response,25,715501,0.0-6.0-0.4,23,1,2023-03-15 15:26:11,95c447948bfde634df5be7bb21c2f1af,"Mozilla/5.0 (Windows NT 10.0; Win64; x64) AppleWebKit/537.36 (KHTML, like Gecko) Chrome/111.0.0.0 Safari/537.36",WebKit,Chrome,111.0.0.0,Windows,10,null,null,fixation,,,,IwAR29eiYR9dKryt0AooSnqok4fzHnwfPqgFvyae82WompZBfFZRQ_snz8JDE
,,,,,image-button-response,26,729739,0.0-6.0-1.4,23,1,2023-03-15 15:26:11,95c447948bfde634df5be7bb21c2f1af,"Mozilla/5.0 (Windows NT 10.0; Win64; x64) AppleWebKit/537.36 (KHTML, like Gecko) Chrome/111.0.0.0 Safari/537.36",WebKit,Chrome,111.0.0.0,Windows,10,14235,5,response_pred,Bombus hortorum,FALSE,Bombus pratorum,IwAR29eiYR9dKryt0AooSnqok4fzHnwfPqgFvyae82WompZBfFZRQ_snz8JDE
,,,,,html-keyboard-response,27,730249,0.0-6.0-0.5,23,1,2023-03-15 15:26:11,95c447948bfde634df5be7bb21c2f1af,"Mozilla/5.0 (Windows NT 10.0; Win64; x64) AppleWebKit/537.36 (KHTML, like Gecko) Chrome/111.0.0.0 Safari/537.36",WebKit,Chrome,111.0.0.0,Windows,10,null,null,fixation,,,,IwAR29eiYR9dKryt0AooSnqok4fzHnwfPqgFvyae82WompZBfFZRQ_snz8JDE
,,,,,image-button-response,28,776527,0.0-6.0-1.5,23,1,2023-03-15 15:26:11,95c447948bfde634df5be7bb21c2f1af,"Mozilla/5.0 (Windows NT 10.0; Win64; x64) AppleWebKit/537.36 (KHTML, like Gecko) Chrome/111.0.0.0 Safari/537.36",WebKit,Chrome,111.0.0.0,Windows,10,46273,1,response_pred,Andrena flavipes,TRUE,Andrena flavipes,IwAR29eiYR9dKryt0AooSnqok4fzHnwfPqgFvyae82WompZBfFZRQ_snz8JDE
,,,,,html-button-response,29,823725,0.0-7.0,23,1,2023-03-15 15:26:11,95c447948bfde634df5be7bb21c2f1af,"Mozilla/5.0 (Windows NT 10.0; Win64; x64) AppleWebKit/537.36 (KHTML, like Gecko) Chrome/111.0.0.0 Safari/537.36",WebKit,Chrome,111.0.0.0,Windows,10,47191,0,,,,,IwAR29eiYR9dKryt0AooSnqok4fzHnwfPqgFvyae82WompZBfFZRQ_snz8JDE
,,,,,html-keyboard-response,30,824491,0.0-8.0-0.0,23,1,2023-03-15 15:26:11,95c447948bfde634df5be7bb21c2f1af,"Mozilla/5.0 (Windows NT 10.0; Win64; x64) AppleWebKit/537.36 (KHTML, like Gecko) Chrome/111.0.0.0 Safari/537.36",WebKit,Chrome,111.0.0.0,Windows,10,null,null,fixation,,,,IwAR29eiYR9dKryt0AooSnqok4fzHnwfPqgFvyae82WompZBfFZRQ_snz8JDE
,,,,,image-button-response,31,838780,0.0-8.0-1.0,23,1,2023-03-15 15:26:11,95c447948bfde634df5be7bb21c2f1af,"Mozilla/5.0 (Windows NT 10.0; Win64; x64) AppleWebKit/537.36 (KHTML, like Gecko) Chrome/111.0.0.0 Safari/537.36",WebKit,Chrome,111.0.0.0,Windows,10,14283,4,response_2,Bombus pratorum,FALSE,,IwAR29eiYR9dKryt0AooSnqok4fzHnwfPqgFvyae82WompZBfFZRQ_snz8JDE
,,,,,html-keyboard-response,32,839541,0.0-8.0-0.1,23,1,2023-03-15 15:26:11,95c447948bfde634df5be7bb21c2f1af,"Mozilla/5.0 (Windows NT 10.0; Win64; x64) AppleWebKit/537.36 (KHTML, like Gecko) Chrome/111.0.0.0 Safari/537.36",WebKit,Chrome,111.0.0.0,Windows,10,null,null,fixation,,,,IwAR29eiYR9dKryt0AooSnqok4fzHnwfPqgFvyae82WompZBfFZRQ_snz8JDE
,,,,,image-button-response,33,857162,0.0-8.0-1.1,23,1,2023-03-15 15:26:11,95c447948bfde634df5be7bb21c2f1af,"Mozilla/5.0 (Windows NT 10.0; Win64; x64) AppleWebKit/537.36 (KHTML, like Gecko) Chrome/111.0.0.0 Safari/537.36",WebKit,Chrome,111.0.0.0,Windows,10,17616,2,response_2,Andrena bicolor,FALSE,,IwAR29eiYR9dKryt0AooSnqok4fzHnwfPqgFvyae82WompZBfFZRQ_snz8JDE
,,,,,html-keyboard-response,34,857421,0.0-8.0-0.2,23,1,2023-03-15 15:26:11,95c447948bfde634df5be7bb21c2f1af,"Mozilla/5.0 (Windows NT 10.0; Win64; x64) AppleWebKit/537.36 (KHTML, like Gecko) Chrome/111.0.0.0 Safari/537.36",WebKit,Chrome,111.0.0.0,Windows,10,null,null,fixation,,,,IwAR29eiYR9dKryt0AooSnqok4fzHnwfPqgFvyae82WompZBfFZRQ_snz8JDE
,,,,,image-button-response,35,868906,0.0-8.0-1.2,23,1,2023-03-15 15:26:11,95c447948bfde634df5be7bb21c2f1af,"Mozilla/5.0 (Windows NT 10.0; Win64; x64) AppleWebKit/537.36 (KHTML, like Gecko) Chrome/111.0.0.0 Safari/537.36",WebKit,Chrome,111.0.0.0,Windows,10,11479,2,response_2,Andrena fulva,TRUE,,IwAR29eiYR9dKryt0AooSnqok4fzHnwfPqgFvyae82WompZBfFZRQ_snz8JDE
,,,,,html-keyboard-response,36,869172,0.0-8.0-0.3,23,1,2023-03-15 15:26:11,95c447948bfde634df5be7bb21c2f1af,"Mozilla/5.0 (Windows NT 10.0; Win64; x64) AppleWebKit/537.36 (KHTML, like Gecko) Chrome/111.0.0.0 Safari/537.36",WebKit,Chrome,111.0.0.0,Windows,10,null,null,fixation,,,,IwAR29eiYR9dKryt0AooSnqok4fzHnwfPqgFvyae82WompZBfFZRQ_snz8JDE
,,,,,image-button-response,37,884767,0.0-8.0-1.3,23,1,2023-03-15 15:26:11,95c447948bfde634df5be7bb21c2f1af,"Mozilla/5.0 (Windows NT 10.0; Win64; x64) AppleWebKit/537.36 (KHTML, like Gecko) Chrome/111.0.0.0 Safari/537.36",WebKit,Chrome,111.0.0.0,Windows,10,15589,1,response_2,Andrena flavipes,TRUE,,IwAR29eiYR9dKryt0AooSnqok4fzHnwfPqgFvyae82WompZBfFZRQ_snz8JDE
,,,,,html-keyboard-response,38,885022,0.0-8.0-0.4,23,1,2023-03-15 15:26:11,95c447948bfde634df5be7bb21c2f1af,"Mozilla/5.0 (Windows NT 10.0; Win64; x64) AppleWebKit/537.36 (KHTML, like Gecko) Chrome/111.0.0.0 Safari/537.36",WebKit,Chrome,111.0.0.0,Windows,10,null,null,fixation,,,,IwAR29eiYR9dKryt0AooSnqok4fzHnwfPqgFvyae82WompZBfFZRQ_snz8JDE
,,,,,image-button-response,39,895788,0.0-8.0-1.4,23,1,2023-03-15 15:26:11,95c447948bfde634df5be7bb21c2f1af,"Mozilla/5.0 (Windows NT 10.0; Win64; x64) AppleWebKit/537.36 (KHTML, like Gecko) Chrome/111.0.0.0 Safari/537.36",WebKit,Chrome,111.0.0.0,Windows,10,10760,3,response_2,Bombus hortorum,TRUE,,IwAR29eiYR9dKryt0AooSnqok4fzHnwfPqgFvyae82WompZBfFZRQ_snz8JDE
,,,,,html-keyboard-response,40,896292,0.0-8.0-0.5,23,1,2023-03-15 15:26:11,95c447948bfde634df5be7bb21c2f1af,"Mozilla/5.0 (Windows NT 10.0; Win64; x64) AppleWebKit/537.36 (KHTML, like Gecko) Chrome/111.0.0.0 Safari/537.36",WebKit,Chrome,111.0.0.0,Windows,10,null,null,fixation,,,,IwAR29eiYR9dKryt0AooSnqok4fzHnwfPqgFvyae82WompZBfFZRQ_snz8JDE
,,,,,image-button-response,41,914041,0.0-8.0-1.5,23,1,2023-03-15 15:26:11,95c447948bfde634df5be7bb21c2f1af,"Mozilla/5.0 (Windows NT 10.0; Win64; x64) AppleWebKit/537.36 (KHTML, like Gecko) Chrome/111.0.0.0 Safari/537.36",WebKit,Chrome,111.0.0.0,Windows,10,17744,0,response_2,Andrena bicolor,TRUE,,IwAR29eiYR9dKryt0AooSnqok4fzHnwfPqgFvyae82WompZBfFZRQ_snz8JDE
,,,,,html-button-response,42,932146,0.0-9.0,23,1,2023-03-15 15:26:11,95c447948bfde634df5be7bb21c2f1af,"Mozilla/5.0 (Windows NT 10.0; Win64; x64) AppleWebKit/537.36 (KHTML, like Gecko) Chrome/111.0.0.0 Safari/537.36",WebKit,Chrome,111.0.0.0,Windows,10,18101,0,,,,,IwAR29eiYR9dKryt0AooSnqok4fzHnwfPqgFvyae82WompZBfFZRQ_snz8JDE
,,,,,html-button-response,43,934514,0.0-10.0,23,1,2023-03-15 15:26:11,95c447948bfde634df5be7bb21c2f1af,"Mozilla/5.0 (Windows NT 10.0; Win64; x64) AppleWebKit/537.36 (KHTML, like Gecko) Chrome/111.0.0.0 Safari/537.36",WebKit,Chrome,111.0.0.0,Windows,10,2366,0,,,,,IwAR29eiYR9dKryt0AooSnqok4fzHnwfPqgFvyae82WompZBfFZRQ_snz8JDE
TRUE,FALSE,[],[],[],preload,0,60,0.0-0.0,22,1,2023-03-15 15:15:30,95c447948bfde634df5be7bb21c2f1af,"Mozilla/5.0 (Windows NT 10.0; Win64; x64) AppleWebKit/537.36 (KHTML, like Gecko) Chrome/111.0.0.0 Safari/537.36",WebKit,Chrome,111.0.0.0,Windows,10,,,,,,,IwAR2Ye-C_CrhWesdLmRHUheeEEDRulnmQlOP-Hd3-0yYS2ut93yg4_81puRM
,,,,,html-button-response,1,1174,0.0-1.0,22,1,2023-03-15 15:15:30,95c447948bfde634df5be7bb21c2f1af,"Mozilla/5.0 (Windows NT 10.0; Win64; x64) AppleWebKit/537.36 (KHTML, like Gecko) Chrome/111.0.0.0 Safari/537.36",WebKit,Chrome,111.0.0.0,Windows,10,1111,0,,,,,IwAR2Ye-C_CrhWesdLmRHUheeEEDRulnmQlOP-Hd3-0yYS2ut93yg4_81puRM
,,,,,html-button-response,2,2779,0.0-2.0,22,1,2023-03-15 15:15:30,95c447948bfde634df5be7bb21c2f1af,"Mozilla/5.0 (Windows NT 10.0; Win64; x64) AppleWebKit/537.36 (KHTML, like Gecko) Chrome/111.0.0.0 Safari/537.36",WebKit,Chrome,111.0.0.0,Windows,10,1604,0,,,,,IwAR2Ye-C_CrhWesdLmRHUheeEEDRulnmQlOP-Hd3-0yYS2ut93yg4_81puRM
,,,,,html-button-response,3,201706,0.0-3.0,22,1,2023-03-15 15:15:30,95c447948bfde634df5be7bb21c2f1af,"Mozilla/5.0 (Windows NT 10.0; Win64; x64) AppleWebKit/537.36 (KHTML, like Gecko) Chrome/111.0.0.0 Safari/537.36",WebKit,Chrome,111.0.0.0,Windows,10,198926,0,,,,,IwAR2Ye-C_CrhWesdLmRHUheeEEDRulnmQlOP-Hd3-0yYS2ut93yg4_81puRM
,,,,,html-keyboard-response,4,203221,0.0-4.0-0.0,22,1,2023-03-15 15:15:30,95c447948bfde634df5be7bb21c2f1af,"Mozilla/5.0 (Windows NT 10.0; Win64; x64) AppleWebKit/537.36 (KHTML, like Gecko) Chrome/111.0.0.0 Safari/537.36",WebKit,Chrome,111.0.0.0,Windows,10,null,null,fixation,,,,IwAR2Ye-C_CrhWesdLmRHUheeEEDRulnmQlOP-Hd3-0yYS2ut93yg4_81puRM
,,,,,image-button-response,5,272413,0.0-4.0-1.0,22,1,2023-03-15 15:15:30,95c447948bfde634df5be7bb21c2f1af,"Mozilla/5.0 (Windows NT 10.0; Win64; x64) AppleWebKit/537.36 (KHTML, like Gecko) Chrome/111.0.0.0 Safari/537.36",WebKit,Chrome,111.0.0.0,Windows,10,69185,0,response_1,Andrena bicolor,TRUE,,IwAR2Ye-C_CrhWesdLmRHUheeEEDRulnmQlOP-Hd3-0yYS2ut93yg4_81puRM
,,,,,html-keyboard-response,6,272667,0.0-4.0-0.1,22,1,2023-03-15 15:15:30,95c447948bfde634df5be7bb21c2f1af,"Mozilla/5.0 (Windows NT 10.0; Win64; x64) AppleWebKit/537.36 (KHTML, like Gecko) Chrome/111.0.0.0 Safari/537.36",WebKit,Chrome,111.0.0.0,Windows,10,null,null,fixation,,,,IwAR2Ye-C_CrhWesdLmRHUheeEEDRulnmQlOP-Hd3-0yYS2ut93yg4_81puRM
,,,,,image-button-response,7,363424,0.0-4.0-1.1,22,1,2023-03-15 15:15:30,95c447948bfde634df5be7bb21c2f1af,"Mozilla/5.0 (Windows NT 10.0; Win64; x64) AppleWebKit/537.36 (KHTML, like Gecko) Chrome/111.0.0.0 Safari/537.36",WebKit,Chrome,111.0.0.0,Windows,10,90750,3,response_1,Bombus hortorum,TRUE,,IwAR2Ye-C_CrhWesdLmRHUheeEEDRulnmQlOP-Hd3-0yYS2ut93yg4_81puRM
,,,,,html-keyboard-response,8,363676,0.0-4.0-0.2,22,1,2023-03-15 15:15:30,95c447948bfde634df5be7bb21c2f1af,"Mozilla/5.0 (Windows NT 10.0; Win64; x64) AppleWebKit/537.36 (KHTML, like Gecko) Chrome/111.0.0.0 Safari/537.36",WebKit,Chrome,111.0.0.0,Windows,10,null,null,fixation,,,,IwAR2Ye-C_CrhWesdLmRHUheeEEDRulnmQlOP-Hd3-0yYS2ut93yg4_81puRM
,,,,,image-button-response,9,443751,0.0-4.0-1.2,22,1,2023-03-15 15:15:30,95c447948bfde634df5be7bb21c2f1af,"Mozilla/5.0 (Windows NT 10.0; Win64; x64) AppleWebKit/537.36 (KHTML, like Gecko) Chrome/111.0.0.0 Safari/537.36",WebKit,Chrome,111.0.0.0,Windows,10,80072,2,response_1,Andrena fulva,TRUE,,IwAR2Ye-C_CrhWesdLmRHUheeEEDRulnmQlOP-Hd3-0yYS2ut93yg4_81puRM
,,,,,html-keyboard-response,10,444254,0.0-4.0-0.3,22,1,2023-03-15 15:15:30,95c447948bfde634df5be7bb21c2f1af,"Mozilla/5.0 (Windows NT 10.0; Win64; x64) AppleWebKit/537.36 (KHTML, like Gecko) Chrome/111.0.0.0 Safari/537.36",WebKit,Chrome,111.0.0.0,Windows,10,null,null,fixation,,,,IwAR2Ye-C_CrhWesdLmRHUheeEEDRulnmQlOP-Hd3-0yYS2ut93yg4_81puRM
,,,,,image-button-response,11,455885,0.0-4.0-1.3,22,1,2023-03-15 15:15:30,95c447948bfde634df5be7bb21c2f1af,"Mozilla/5.0 (Windows NT 10.0; Win64; x64) AppleWebKit/537.36 (KHTML, like Gecko) Chrome/111.0.0.0 Safari/537.36",WebKit,Chrome,111.0.0.0,Windows,10,11629,5,response_1,Bombus pratorum,TRUE,,IwAR2Ye-C_CrhWesdLmRHUheeEEDRulnmQlOP-Hd3-0yYS2ut93yg4_81puRM
,,,,,html-keyboard-response,12,456386,0.0-4.0-0.4,22,1,2023-03-15 15:15:30,95c447948bfde634df5be7bb21c2f1af,"Mozilla/5.0 (Windows NT 10.0; Win64; x64) AppleWebKit/537.36 (KHTML, like Gecko) Chrome/111.0.0.0 Safari/537.36",WebKit,Chrome,111.0.0.0,Windows,10,null,null,fixation,,,,IwAR2Ye-C_CrhWesdLmRHUheeEEDRulnmQlOP-Hd3-0yYS2ut93yg4_81puRM
,,,,,image-button-response,13,508482,0.0-4.0-1.4,22,1,2023-03-15 15:15:30,95c447948bfde634df5be7bb21c2f1af,"Mozilla/5.0 (Windows NT 10.0; Win64; x64) AppleWebKit/537.36 (KHTML, like Gecko) Chrome/111.0.0.0 Safari/537.36",WebKit,Chrome,111.0.0.0,Windows,10,52093,0,response_1,Andrena bicolor,TRUE,,IwAR2Ye-C_CrhWesdLmRHUheeEEDRulnmQlOP-Hd3-0yYS2ut93yg4_81puRM
,,,,,html-keyboard-response,14,508734,0.0-4.0-0.5,22,1,2023-03-15 15:15:30,95c447948bfde634df5be7bb21c2f1af,"Mozilla/5.0 (Windows NT 10.0; Win64; x64) AppleWebKit/537.36 (KHTML, like Gecko) Chrome/111.0.0.0 Safari/537.36",WebKit,Chrome,111.0.0.0,Windows,10,null,null,fixation,,,,IwAR2Ye-C_CrhWesdLmRHUheeEEDRulnmQlOP-Hd3-0yYS2ut93yg4_81puRM
,,,,,image-button-response,15,543276,0.0-4.0-1.5,22,1,2023-03-15 15:15:30,95c447948bfde634df5be7bb21c2f1af,"Mozilla/5.0 (Windows NT 10.0; Win64; x64) AppleWebKit/537.36 (KHTML, like Gecko) Chrome/111.0.0.0 Safari/537.36",WebKit,Chrome,111.0.0.0,Windows,10,34539,2,response_1,Andrena fulva,TRUE,,IwAR2Ye-C_CrhWesdLmRHUheeEEDRulnmQlOP-Hd3-0yYS2ut93yg4_81puRM
,,,,,html-button-response,16,584779,0.0-5.0,22,1,2023-03-15 15:15:30,95c447948bfde634df5be7bb21c2f1af,"Mozilla/5.0 (Windows NT 10.0; Win64; x64) AppleWebKit/537.36 (KHTML, like Gecko) Chrome/111.0.0.0 Safari/537.36",WebKit,Chrome,111.0.0.0,Windows,10,41502,0,,,,,IwAR2Ye-C_CrhWesdLmRHUheeEEDRulnmQlOP-Hd3-0yYS2ut93yg4_81puRM
,,,,,html-keyboard-response,17,585285,0.0-6.0-0.0,22,1,2023-03-15 15:15:30,95c447948bfde634df5be7bb21c2f1af,"Mozilla/5.0 (Windows NT 10.0; Win64; x64) AppleWebKit/537.36 (KHTML, like Gecko) Chrome/111.0.0.0 Safari/537.36",WebKit,Chrome,111.0.0.0,Windows,10,null,null,fixation,,,,IwAR2Ye-C_CrhWesdLmRHUheeEEDRulnmQlOP-Hd3-0yYS2ut93yg4_81puRM
,,,,,image-button-response,18,608665,0.0-6.0-1.0,22,1,2023-03-15 15:15:30,95c447948bfde634df5be7bb21c2f1af,"Mozilla/5.0 (Windows NT 10.0; Win64; x64) AppleWebKit/537.36 (KHTML, like Gecko) Chrome/111.0.0.0 Safari/537.36",WebKit,Chrome,111.0.0.0,Windows,10,23377,2,response_pred,Andrena fulva,TRUE,Andrena fulva,IwAR2Ye-C_CrhWesdLmRHUheeEEDRulnmQlOP-Hd3-0yYS2ut93yg4_81puRM
,,,,,html-keyboard-response,19,609168,0.0-6.0-0.1,22,1,2023-03-15 15:15:30,95c447948bfde634df5be7bb21c2f1af,"Mozilla/5.0 (Windows NT 10.0; Win64; x64) AppleWebKit/537.36 (KHTML, like Gecko) Chrome/111.0.0.0 Safari/537.36",WebKit,Chrome,111.0.0.0,Windows,10,null,null,fixation,,,,IwAR2Ye-C_CrhWesdLmRHUheeEEDRulnmQlOP-Hd3-0yYS2ut93yg4_81puRM
,,,,,image-button-response,20,646743,0.0-6.0-1.1,22,1,2023-03-15 15:15:30,95c447948bfde634df5be7bb21c2f1af,"Mozilla/5.0 (Windows NT 10.0; Win64; x64) AppleWebKit/537.36 (KHTML, like Gecko) Chrome/111.0.0.0 Safari/537.36",WebKit,Chrome,111.0.0.0,Windows,10,37573,4,response_pred,Bombus lucorum,TRUE,Bombus hortorum,IwAR2Ye-C_CrhWesdLmRHUheeEEDRulnmQlOP-Hd3-0yYS2ut93yg4_81puRM
,,,,,html-keyboard-response,21,646998,0.0-6.0-0.2,22,1,2023-03-15 15:15:30,95c447948bfde634df5be7bb21c2f1af,"Mozilla/5.0 (Windows NT 10.0; Win64; x64) AppleWebKit/537.36 (KHTML, like Gecko) Chrome/111.0.0.0 Safari/537.36",WebKit,Chrome,111.0.0.0,Windows,10,null,null,fixation,,,,IwAR2Ye-C_CrhWesdLmRHUheeEEDRulnmQlOP-Hd3-0yYS2ut93yg4_81puRM
,,,,,image-button-response,22,701599,0.0-6.0-1.2,22,1,2023-03-15 15:15:30,95c447948bfde634df5be7bb21c2f1af,"Mozilla/5.0 (Windows NT 10.0; Win64; x64) AppleWebKit/537.36 (KHTML, like Gecko) Chrome/111.0.0.0 Safari/537.36",WebKit,Chrome,111.0.0.0,Windows,10,54599,3,response_pred,Bombus hortorum,TRUE,Bombus pratorum,IwAR2Ye-C_CrhWesdLmRHUheeEEDRulnmQlOP-Hd3-0yYS2ut93yg4_81puRM
,,,,,html-keyboard-response,23,702101,0.0-6.0-0.3,22,1,2023-03-15 15:15:30,95c447948bfde634df5be7bb21c2f1af,"Mozilla/5.0 (Windows NT 10.0; Win64; x64) AppleWebKit/537.36 (KHTML, like Gecko) Chrome/111.0.0.0 Safari/537.36",WebKit,Chrome,111.0.0.0,Windows,10,null,null,fixation,,,,IwAR2Ye-C_CrhWesdLmRHUheeEEDRulnmQlOP-Hd3-0yYS2ut93yg4_81puRM
,,,,,image-button-response,24,728258,0.0-6.0-1.3,22,1,2023-03-15 15:15:30,95c447948bfde634df5be7bb21c2f1af,"Mozilla/5.0 (Windows NT 10.0; Win64; x64) AppleWebKit/537.36 (KHTML, like Gecko) Chrome/111.0.0.0 Safari/537.36",WebKit,Chrome,111.0.0.0,Windows,10,26154,0,response_pred,Andrena bicolor,TRUE,Andrena bicolor,IwAR2Ye-C_CrhWesdLmRHUheeEEDRulnmQlOP-Hd3-0yYS2ut93yg4_81puRM
,,,,,html-keyboard-response,25,728759,0.0-6.0-0.4,22,1,2023-03-15 15:15:30,95c447948bfde634df5be7bb21c2f1af,"Mozilla/5.0 (Windows NT 10.0; Win64; x64) AppleWebKit/537.36 (KHTML, like Gecko) Chrome/111.0.0.0 Safari/537.36",WebKit,Chrome,111.0.0.0,Windows,10,null,null,fixation,,,,IwAR2Ye-C_CrhWesdLmRHUheeEEDRulnmQlOP-Hd3-0yYS2ut93yg4_81puRM
,,,,,image-button-response,26,749865,0.0-6.0-1.4,22,1,2023-03-15 15:15:30,95c447948bfde634df5be7bb21c2f1af,"Mozilla/5.0 (Windows NT 10.0; Win64; x64) AppleWebKit/537.36 (KHTML, like Gecko) Chrome/111.0.0.0 Safari/537.36",WebKit,Chrome,111.0.0.0,Windows,10,21104,1,response_pred,Andrena flavipes,TRUE,Andrena flavipes,IwAR2Ye-C_CrhWesdLmRHUheeEEDRulnmQlOP-Hd3-0yYS2ut93yg4_81puRM
,,,,,html-keyboard-response,27,750366,0.0-6.0-0.5,22,1,2023-03-15 15:15:30,95c447948bfde634df5be7bb21c2f1af,"Mozilla/5.0 (Windows NT 10.0; Win64; x64) AppleWebKit/537.36 (KHTML, like Gecko) Chrome/111.0.0.0 Safari/537.36",WebKit,Chrome,111.0.0.0,Windows,10,null,null,fixation,,,,IwAR2Ye-C_CrhWesdLmRHUheeEEDRulnmQlOP-Hd3-0yYS2ut93yg4_81puRM
,,,,,image-button-response,28,823776,0.0-6.0-1.5,22,1,2023-03-15 15:15:30,95c447948bfde634df5be7bb21c2f1af,"Mozilla/5.0 (Windows NT 10.0; Win64; x64) AppleWebKit/537.36 (KHTML, like Gecko) Chrome/111.0.0.0 Safari/537.36",WebKit,Chrome,111.0.0.0,Windows,10,73408,5,response_pred,Bombus pratorum,TRUE,Bombus lucorum,IwAR2Ye-C_CrhWesdLmRHUheeEEDRulnmQlOP-Hd3-0yYS2ut93yg4_81puRM
,,,,,html-button-response,29,852163,0.0-7.0,22,1,2023-03-15 15:15:30,95c447948bfde634df5be7bb21c2f1af,"Mozilla/5.0 (Windows NT 10.0; Win64; x64) AppleWebKit/537.36 (KHTML, like Gecko) Chrome/111.0.0.0 Safari/537.36",WebKit,Chrome,111.0.0.0,Windows,10,28385,0,,,,,IwAR2Ye-C_CrhWesdLmRHUheeEEDRulnmQlOP-Hd3-0yYS2ut93yg4_81puRM
,,,,,html-keyboard-response,30,852672,0.0-8.0-0.0,22,1,2023-03-15 15:15:30,95c447948bfde634df5be7bb21c2f1af,"Mozilla/5.0 (Windows NT 10.0; Win64; x64) AppleWebKit/537.36 (KHTML, like Gecko) Chrome/111.0.0.0 Safari/537.36",WebKit,Chrome,111.0.0.0,Windows,10,null,null,fixation,,,,IwAR2Ye-C_CrhWesdLmRHUheeEEDRulnmQlOP-Hd3-0yYS2ut93yg4_81puRM
,,,,,image-button-response,31,888835,0.0-8.0-1.0,22,1,2023-03-15 15:15:30,95c447948bfde634df5be7bb21c2f1af,"Mozilla/5.0 (Windows NT 10.0; Win64; x64) AppleWebKit/537.36 (KHTML, like Gecko) Chrome/111.0.0.0 Safari/537.36",WebKit,Chrome,111.0.0.0,Windows,10,36160,1,response_2,Andrena flavipes,TRUE,,IwAR2Ye-C_CrhWesdLmRHUheeEEDRulnmQlOP-Hd3-0yYS2ut93yg4_81puRM
,,,,,html-keyboard-response,32,889337,0.0-8.0-0.1,22,1,2023-03-15 15:15:30,95c447948bfde634df5be7bb21c2f1af,"Mozilla/5.0 (Windows NT 10.0; Win64; x64) AppleWebKit/537.36 (KHTML, like Gecko) Chrome/111.0.0.0 Safari/537.36",WebKit,Chrome,111.0.0.0,Windows,10,null,null,fixation,,,,IwAR2Ye-C_CrhWesdLmRHUheeEEDRulnmQlOP-Hd3-0yYS2ut93yg4_81puRM
,,,,,image-button-response,33,940135,0.0-8.0-1.1,22,1,2023-03-15 15:15:30,95c447948bfde634df5be7bb21c2f1af,"Mozilla/5.0 (Windows NT 10.0; Win64; x64) AppleWebKit/537.36 (KHTML, like Gecko) Chrome/111.0.0.0 Safari/537.36",WebKit,Chrome,111.0.0.0,Windows,10,50796,4,response_2,Bombus lucorum,TRUE,,IwAR2Ye-C_CrhWesdLmRHUheeEEDRulnmQlOP-Hd3-0yYS2ut93yg4_81puRM
,,,,,html-keyboard-response,34,940887,0.0-8.0-0.2,22,1,2023-03-15 15:15:30,95c447948bfde634df5be7bb21c2f1af,"Mozilla/5.0 (Windows NT 10.0; Win64; x64) AppleWebKit/537.36 (KHTML, like Gecko) Chrome/111.0.0.0 Safari/537.36",WebKit,Chrome,111.0.0.0,Windows,10,null,null,fixation,,,,IwAR2Ye-C_CrhWesdLmRHUheeEEDRulnmQlOP-Hd3-0yYS2ut93yg4_81puRM
,,,,,image-button-response,35,976925,0.0-8.0-1.2,22,1,2023-03-15 15:15:30,95c447948bfde634df5be7bb21c2f1af,"Mozilla/5.0 (Windows NT 10.0; Win64; x64) AppleWebKit/537.36 (KHTML, like Gecko) Chrome/111.0.0.0 Safari/537.36",WebKit,Chrome,111.0.0.0,Windows,10,36036,5,response_2,Bombus lucorum,FALSE,,IwAR2Ye-C_CrhWesdLmRHUheeEEDRulnmQlOP-Hd3-0yYS2ut93yg4_81puRM
,,,,,html-keyboard-response,36,977428,0.0-8.0-0.3,22,1,2023-03-15 15:15:30,95c447948bfde634df5be7bb21c2f1af,"Mozilla/5.0 (Windows NT 10.0; Win64; x64) AppleWebKit/537.36 (KHTML, like Gecko) Chrome/111.0.0.0 Safari/537.36",WebKit,Chrome,111.0.0.0,Windows,10,null,null,fixation,,,,IwAR2Ye-C_CrhWesdLmRHUheeEEDRulnmQlOP-Hd3-0yYS2ut93yg4_81puRM
,,,,,image-button-response,37,1006866,0.0-8.0-1.3,22,1,2023-03-15 15:15:30,95c447948bfde634df5be7bb21c2f1af,"Mozilla/5.0 (Windows NT 10.0; Win64; x64) AppleWebKit/537.36 (KHTML, like Gecko) Chrome/111.0.0.0 Safari/537.36",WebKit,Chrome,111.0.0.0,Windows,10,29436,3,response_2,Bombus hortorum,TRUE,,IwAR2Ye-C_CrhWesdLmRHUheeEEDRulnmQlOP-Hd3-0yYS2ut93yg4_81puRM
,,,,,html-keyboard-response,38,1007618,0.0-8.0-0.4,22,1,2023-03-15 15:15:30,95c447948bfde634df5be7bb21c2f1af,"Mozilla/5.0 (Windows NT 10.0; Win64; x64) AppleWebKit/537.36 (KHTML, like Gecko) Chrome/111.0.0.0 Safari/537.36",WebKit,Chrome,111.0.0.0,Windows,10,null,null,fixation,,,,IwAR2Ye-C_CrhWesdLmRHUheeEEDRulnmQlOP-Hd3-0yYS2ut93yg4_81puRM
,,,,,image-button-response,39,1053686,0.0-8.0-1.4,22,1,2023-03-15 15:15:30,95c447948bfde634df5be7bb21c2f1af,"Mozilla/5.0 (Windows NT 10.0; Win64; x64) AppleWebKit/537.36 (KHTML, like Gecko) Chrome/111.0.0.0 Safari/537.36",WebKit,Chrome,111.0.0.0,Windows,10,46064,0,response_2,Andrena flavipes,FALSE,,IwAR2Ye-C_CrhWesdLmRHUheeEEDRulnmQlOP-Hd3-0yYS2ut93yg4_81puRM
,,,,,html-keyboard-response,40,1053949,0.0-8.0-0.5,22,1,2023-03-15 15:15:30,95c447948bfde634df5be7bb21c2f1af,"Mozilla/5.0 (Windows NT 10.0; Win64; x64) AppleWebKit/537.36 (KHTML, like Gecko) Chrome/111.0.0.0 Safari/537.36",WebKit,Chrome,111.0.0.0,Windows,10,null,null,fixation,,,,IwAR2Ye-C_CrhWesdLmRHUheeEEDRulnmQlOP-Hd3-0yYS2ut93yg4_81puRM
,,,,,image-button-response,41,1086152,0.0-8.0-1.5,22,1,2023-03-15 15:15:30,95c447948bfde634df5be7bb21c2f1af,"Mozilla/5.0 (Windows NT 10.0; Win64; x64) AppleWebKit/537.36 (KHTML, like Gecko) Chrome/111.0.0.0 Safari/537.36",WebKit,Chrome,111.0.0.0,Windows,10,32200,5,response_2,Bombus pratorum,TRUE,,IwAR2Ye-C_CrhWesdLmRHUheeEEDRulnmQlOP-Hd3-0yYS2ut93yg4_81puRM
,,,,,html-button-response,42,1097540,0.0-9.0,22,1,2023-03-15 15:15:30,95c447948bfde634df5be7bb21c2f1af,"Mozilla/5.0 (Windows NT 10.0; Win64; x64) AppleWebKit/537.36 (KHTML, like Gecko) Chrome/111.0.0.0 Safari/537.36",WebKit,Chrome,111.0.0.0,Windows,10,11386,0,,,,,IwAR2Ye-C_CrhWesdLmRHUheeEEDRulnmQlOP-Hd3-0yYS2ut93yg4_81puRM
,,,,,html-button-response,43,1099454,0.0-10.0,22,1,2023-03-15 15:15:30,95c447948bfde634df5be7bb21c2f1af,"Mozilla/5.0 (Windows NT 10.0; Win64; x64) AppleWebKit/537.36 (KHTML, like Gecko) Chrome/111.0.0.0 Safari/537.36",WebKit,Chrome,111.0.0.0,Windows,10,1912,0,,,,,IwAR2Ye-C_CrhWesdLmRHUheeEEDRulnmQlOP-Hd3-0yYS2ut93yg4_81puRM
TRUE,FALSE,[],[],[],preload,0,329,0.0-0.0,14,1,2023-03-14 23:02:55,95c447948bfde634df5be7bb21c2f1af,"Mozilla/5.0 (Linux; Android 13; SM-G780G) AppleWebKit/537.36 (KHTML, like Gecko) Chrome/110.0.0.0 Mobile Safari/537.36",WebKit,Chrome,110.0.0.0,AndroidOS,13,,,,,,,
,,,,,html-button-response,1,3315,0.0-1.0,14,1,2023-03-14 23:02:55,95c447948bfde634df5be7bb21c2f1af,"Mozilla/5.0 (Linux; Android 13; SM-G780G) AppleWebKit/537.36 (KHTML, like Gecko) Chrome/110.0.0.0 Mobile Safari/537.36",WebKit,Chrome,110.0.0.0,AndroidOS,13,2982,0,,,,,
,,,,,html-button-response,2,17590,0.0-2.0,14,1,2023-03-14 23:02:55,95c447948bfde634df5be7bb21c2f1af,"Mozilla/5.0 (Linux; Android 13; SM-G780G) AppleWebKit/537.36 (KHTML, like Gecko) Chrome/110.0.0.0 Mobile Safari/537.36",WebKit,Chrome,110.0.0.0,AndroidOS,13,14273,0,,,,,
,,,,,html-button-response,3,82363,0.0-3.0,14,1,2023-03-14 23:02:55,95c447948bfde634df5be7bb21c2f1af,"Mozilla/5.0 (Linux; Android 13; SM-G780G) AppleWebKit/537.36 (KHTML, like Gecko) Chrome/110.0.0.0 Mobile Safari/537.36",WebKit,Chrome,110.0.0.0,AndroidOS,13,64769,0,,,,,
,,,,,html-keyboard-response,4,83886,0.0-4.0-0.0,14,1,2023-03-14 23:02:55,95c447948bfde634df5be7bb21c2f1af,"Mozilla/5.0 (Linux; Android 13; SM-G780G) AppleWebKit/537.36 (KHTML, like Gecko) Chrome/110.0.0.0 Mobile Safari/537.36",WebKit,Chrome,110.0.0.0,AndroidOS,13,null,null,fixation,,,,
,,,,,image-button-response,5,111896,0.0-4.0-1.0,14,1,2023-03-14 23:02:55,95c447948bfde634df5be7bb21c2f1af,"Mozilla/5.0 (Linux; Android 13; SM-G780G) AppleWebKit/537.36 (KHTML, like Gecko) Chrome/110.0.0.0 Mobile Safari/537.36",WebKit,Chrome,110.0.0.0,AndroidOS,13,27982,0,response_1,Andrena fulva,FALSE,,
,,,,,html-keyboard-response,6,112156,0.0-4.0-0.1,14,1,2023-03-14 23:02:55,95c447948bfde634df5be7bb21c2f1af,"Mozilla/5.0 (Linux; Android 13; SM-G780G) AppleWebKit/537.36 (KHTML, like Gecko) Chrome/110.0.0.0 Mobile Safari/537.36",WebKit,Chrome,110.0.0.0,AndroidOS,13,null,null,fixation,,,,
,,,,,image-button-response,7,121875,0.0-4.0-1.1,14,1,2023-03-14 23:02:55,95c447948bfde634df5be7bb21c2f1af,"Mozilla/5.0 (Linux; Android 13; SM-G780G) AppleWebKit/537.36 (KHTML, like Gecko) Chrome/110.0.0.0 Mobile Safari/537.36",WebKit,Chrome,110.0.0.0,AndroidOS,13,9709,3,response_1,Bombus pratorum,FALSE,,
,,,,,html-keyboard-response,8,122131,0.0-4.0-0.2,14,1,2023-03-14 23:02:55,95c447948bfde634df5be7bb21c2f1af,"Mozilla/5.0 (Linux; Android 13; SM-G780G) AppleWebKit/537.36 (KHTML, like Gecko) Chrome/110.0.0.0 Mobile Safari/537.36",WebKit,Chrome,110.0.0.0,AndroidOS,13,null,null,fixation,,,,
,,,,,image-button-response,9,136692,0.0-4.0-1.2,14,1,2023-03-14 23:02:55,95c447948bfde634df5be7bb21c2f1af,"Mozilla/5.0 (Linux; Android 13; SM-G780G) AppleWebKit/537.36 (KHTML, like Gecko) Chrome/110.0.0.0 Mobile Safari/537.36",WebKit,Chrome,110.0.0.0,AndroidOS,13,14551,0,response_1,Andrena bicolor,TRUE,,
,,,,,html-keyboard-response,10,137196,0.0-4.0-0.3,14,1,2023-03-14 23:02:55,95c447948bfde634df5be7bb21c2f1af,"Mozilla/5.0 (Linux; Android 13; SM-G780G) AppleWebKit/537.36 (KHTML, like Gecko) Chrome/110.0.0.0 Mobile Safari/537.36",WebKit,Chrome,110.0.0.0,AndroidOS,13,null,null,fixation,,,,
,,,,,image-button-response,11,160805,0.0-4.0-1.3,14,1,2023-03-14 23:02:55,95c447948bfde634df5be7bb21c2f1af,"Mozilla/5.0 (Linux; Android 13; SM-G780G) AppleWebKit/537.36 (KHTML, like Gecko) Chrome/110.0.0.0 Mobile Safari/537.36",WebKit,Chrome,110.0.0.0,AndroidOS,13,23599,4,response_1,Bombus pratorum,FALSE,,
,,,,,html-keyboard-response,12,161065,0.0-4.0-0.4,14,1,2023-03-14 23:02:55,95c447948bfde634df5be7bb21c2f1af,"Mozilla/5.0 (Linux; Android 13; SM-G780G) AppleWebKit/537.36 (KHTML, like Gecko) Chrome/110.0.0.0 Mobile Safari/537.36",WebKit,Chrome,110.0.0.0,AndroidOS,13,null,null,fixation,,,,
,,,,,image-button-response,13,170224,0.0-4.0-1.4,14,1,2023-03-14 23:02:55,95c447948bfde634df5be7bb21c2f1af,"Mozilla/5.0 (Linux; Android 13; SM-G780G) AppleWebKit/537.36 (KHTML, like Gecko) Chrome/110.0.0.0 Mobile Safari/537.36",WebKit,Chrome,110.0.0.0,AndroidOS,13,9153,4,response_1,Bombus hortorum,FALSE,,
,,,,,html-keyboard-response,14,170484,0.0-4.0-0.5,14,1,2023-03-14 23:02:55,95c447948bfde634df5be7bb21c2f1af,"Mozilla/5.0 (Linux; Android 13; SM-G780G) AppleWebKit/537.36 (KHTML, like Gecko) Chrome/110.0.0.0 Mobile Safari/537.36",WebKit,Chrome,110.0.0.0,AndroidOS,13,null,null,fixation,,,,
,,,,,image-button-response,15,177915,0.0-4.0-1.5,14,1,2023-03-14 23:02:55,95c447948bfde634df5be7bb21c2f1af,"Mozilla/5.0 (Linux; Android 13; SM-G780G) AppleWebKit/537.36 (KHTML, like Gecko) Chrome/110.0.0.0 Mobile Safari/537.36",WebKit,Chrome,110.0.0.0,AndroidOS,13,7422,1,response_1,Andrena bicolor,FALSE,,
,,,,,html-button-response,16,183243,0.0-5.0,14,1,2023-03-14 23:02:55,95c447948bfde634df5be7bb21c2f1af,"Mozilla/5.0 (Linux; Android 13; SM-G780G) AppleWebKit/537.36 (KHTML, like Gecko) Chrome/110.0.0.0 Mobile Safari/537.36",WebKit,Chrome,110.0.0.0,AndroidOS,13,5324,0,,,,,
,,,,,html-keyboard-response,17,183499,0.0-6.0-0.0,14,1,2023-03-14 23:02:55,95c447948bfde634df5be7bb21c2f1af,"Mozilla/5.0 (Linux; Android 13; SM-G780G) AppleWebKit/537.36 (KHTML, like Gecko) Chrome/110.0.0.0 Mobile Safari/537.36",WebKit,Chrome,110.0.0.0,AndroidOS,13,null,null,fixation,,,,
,,,,,image-button-response,18,196322,0.0-6.0-1.0,14,1,2023-03-14 23:02:55,95c447948bfde634df5be7bb21c2f1af,"Mozilla/5.0 (Linux; Android 13; SM-G780G) AppleWebKit/537.36 (KHTML, like Gecko) Chrome/110.0.0.0 Mobile Safari/537.36",WebKit,Chrome,110.0.0.0,AndroidOS,13,12817,0,response_pred,Andrena fulva,FALSE,Andrena fulva,
,,,,,html-keyboard-response,19,196827,0.0-6.0-0.1,14,1,2023-03-14 23:02:55,95c447948bfde634df5be7bb21c2f1af,"Mozilla/5.0 (Linux; Android 13; SM-G780G) AppleWebKit/537.36 (KHTML, like Gecko) Chrome/110.0.0.0 Mobile Safari/537.36",WebKit,Chrome,110.0.0.0,AndroidOS,13,null,null,fixation,,,,
,,,,,image-button-response,20,207193,0.0-6.0-1.1,14,1,2023-03-14 23:02:55,95c447948bfde634df5be7bb21c2f1af,"Mozilla/5.0 (Linux; Android 13; SM-G780G) AppleWebKit/537.36 (KHTML, like Gecko) Chrome/110.0.0.0 Mobile Safari/537.36",WebKit,Chrome,110.0.0.0,AndroidOS,13,10357,3,response_pred,Bombus pratorum,FALSE,Bombus lucorum,
,,,,,html-keyboard-response,21,207699,0.0-6.0-0.2,14,1,2023-03-14 23:02:55,95c447948bfde634df5be7bb21c2f1af,"Mozilla/5.0 (Linux; Android 13; SM-G780G) AppleWebKit/537.36 (KHTML, like Gecko) Chrome/110.0.0.0 Mobile Safari/537.36",WebKit,Chrome,110.0.0.0,AndroidOS,13,null,null,fixation,,,,
,,,,,image-button-response,22,220244,0.0-6.0-1.2,14,1,2023-03-14 23:02:55,95c447948bfde634df5be7bb21c2f1af,"Mozilla/5.0 (Linux; Android 13; SM-G780G) AppleWebKit/537.36 (KHTML, like Gecko) Chrome/110.0.0.0 Mobile Safari/537.36",WebKit,Chrome,110.0.0.0,AndroidOS,13,12536,1,response_pred,Andrena bicolor,FALSE,Andrena bicolor,
,,,,,html-keyboard-response,23,221005,0.0-6.0-0.3,14,1,2023-03-14 23:02:55,95c447948bfde634df5be7bb21c2f1af,"Mozilla/5.0 (Linux; Android 13; SM-G780G) AppleWebKit/537.36 (KHTML, like Gecko) Chrome/110.0.0.0 Mobile Safari/537.36",WebKit,Chrome,110.0.0.0,AndroidOS,13,null,null,fixation,,,,
,,,,,image-button-response,24,228727,0.0-6.0-1.3,14,1,2023-03-14 23:02:55,95c447948bfde634df5be7bb21c2f1af,"Mozilla/5.0 (Linux; Android 13; SM-G780G) AppleWebKit/537.36 (KHTML, like Gecko) Chrome/110.0.0.0 Mobile Safari/537.36",WebKit,Chrome,110.0.0.0,AndroidOS,13,7711,4,response_pred,Bombus lucorum,TRUE,Bombus hortorum,
,,,,,html-keyboard-response,25,229235,0.0-6.0-0.4,14,1,2023-03-14 23:02:55,95c447948bfde634df5be7bb21c2f1af,"Mozilla/5.0 (Linux; Android 13; SM-G780G) AppleWebKit/537.36 (KHTML, like Gecko) Chrome/110.0.0.0 Mobile Safari/537.36",WebKit,Chrome,110.0.0.0,AndroidOS,13,null,null,fixation,,,,
,,,,,image-button-response,26,233202,0.0-6.0-1.4,14,1,2023-03-14 23:02:55,95c447948bfde634df5be7bb21c2f1af,"Mozilla/5.0 (Linux; Android 13; SM-G780G) AppleWebKit/537.36 (KHTML, like Gecko) Chrome/110.0.0.0 Mobile Safari/537.36",WebKit,Chrome,110.0.0.0,AndroidOS,13,3957,4,response_pred,Bombus hortorum,FALSE,Bombus pratorum,
,,,,,html-keyboard-response,27,233459,0.0-6.0-0.5,14,1,2023-03-14 23:02:55,95c447948bfde634df5be7bb21c2f1af,"Mozilla/5.0 (Linux; Android 13; SM-G780G) AppleWebKit/537.36 (KHTML, like Gecko) Chrome/110.0.0.0 Mobile Safari/537.36",WebKit,Chrome,110.0.0.0,AndroidOS,13,null,null,fixation,,,,
,,,,,image-button-response,28,239214,0.0-6.0-1.5,14,1,2023-03-14 23:02:55,95c447948bfde634df5be7bb21c2f1af,"Mozilla/5.0 (Linux; Android 13; SM-G780G) AppleWebKit/537.36 (KHTML, like Gecko) Chrome/110.0.0.0 Mobile Safari/537.36",WebKit,Chrome,110.0.0.0,AndroidOS,13,5750,1,response_pred,Andrena flavipes,TRUE,Andrena flavipes,
,,,,,html-button-response,29,247950,0.0-7.0,14,1,2023-03-14 23:02:55,95c447948bfde634df5be7bb21c2f1af,"Mozilla/5.0 (Linux; Android 13; SM-G780G) AppleWebKit/537.36 (KHTML, like Gecko) Chrome/110.0.0.0 Mobile Safari/537.36",WebKit,Chrome,110.0.0.0,AndroidOS,13,8732,0,,,,,
,,,,,html-keyboard-response,30,248204,0.0-8.0-0.0,14,1,2023-03-14 23:02:55,95c447948bfde634df5be7bb21c2f1af,"Mozilla/5.0 (Linux; Android 13; SM-G780G) AppleWebKit/537.36 (KHTML, like Gecko) Chrome/110.0.0.0 Mobile Safari/537.36",WebKit,Chrome,110.0.0.0,AndroidOS,13,null,null,fixation,,,,
,,,,,image-button-response,31,256211,0.0-8.0-1.0,14,1,2023-03-14 23:02:55,95c447948bfde634df5be7bb21c2f1af,"Mozilla/5.0 (Linux; Android 13; SM-G780G) AppleWebKit/537.36 (KHTML, like Gecko) Chrome/110.0.0.0 Mobile Safari/537.36",WebKit,Chrome,110.0.0.0,AndroidOS,13,7997,3,response_2,Bombus hortorum,TRUE,,
,,,,,html-keyboard-response,32,256467,0.0-8.0-0.1,14,1,2023-03-14 23:02:55,95c447948bfde634df5be7bb21c2f1af,"Mozilla/5.0 (Linux; Android 13; SM-G780G) AppleWebKit/537.36 (KHTML, like Gecko) Chrome/110.0.0.0 Mobile Safari/537.36",WebKit,Chrome,110.0.0.0,AndroidOS,13,null,null,fixation,,,,
,,,,,image-button-response,33,270170,0.0-8.0-1.1,14,1,2023-03-14 23:02:55,95c447948bfde634df5be7bb21c2f1af,"Mozilla/5.0 (Linux; Android 13; SM-G780G) AppleWebKit/537.36 (KHTML, like Gecko) Chrome/110.0.0.0 Mobile Safari/537.36",WebKit,Chrome,110.0.0.0,AndroidOS,13,13697,2,response_2,Andrena flavipes,FALSE,,
,,,,,html-keyboard-response,34,270677,0.0-8.0-0.2,14,1,2023-03-14 23:02:55,95c447948bfde634df5be7bb21c2f1af,"Mozilla/5.0 (Linux; Android 13; SM-G780G) AppleWebKit/537.36 (KHTML, like Gecko) Chrome/110.0.0.0 Mobile Safari/537.36",WebKit,Chrome,110.0.0.0,AndroidOS,13,null,null,fixation,,,,
,,,,,image-button-response,35,280125,0.0-8.0-1.2,14,1,2023-03-14 23:02:55,95c447948bfde634df5be7bb21c2f1af,"Mozilla/5.0 (Linux; Android 13; SM-G780G) AppleWebKit/537.36 (KHTML, like Gecko) Chrome/110.0.0.0 Mobile Safari/537.36",WebKit,Chrome,110.0.0.0,AndroidOS,13,9437,4,response_2,Bombus lucorum,TRUE,,
,,,,,html-keyboard-response,36,280885,0.0-8.0-0.3,14,1,2023-03-14 23:02:55,95c447948bfde634df5be7bb21c2f1af,"Mozilla/5.0 (Linux; Android 13; SM-G780G) AppleWebKit/537.36 (KHTML, like Gecko) Chrome/110.0.0.0 Mobile Safari/537.36",WebKit,Chrome,110.0.0.0,AndroidOS,13,null,null,fixation,,,,
,,,,,image-button-response,37,285443,0.0-8.0-1.3,14,1,2023-03-14 23:02:55,95c447948bfde634df5be7bb21c2f1af,"Mozilla/5.0 (Linux; Android 13; SM-G780G) AppleWebKit/537.36 (KHTML, like Gecko) Chrome/110.0.0.0 Mobile Safari/537.36",WebKit,Chrome,110.0.0.0,AndroidOS,13,4547,4,response_2,Bombus lucorum,TRUE,,
,,,,,html-keyboard-response,38,285700,0.0-8.0-0.4,14,1,2023-03-14 23:02:55,95c447948bfde634df5be7bb21c2f1af,"Mozilla/5.0 (Linux; Android 13; SM-G780G) AppleWebKit/537.36 (KHTML, like Gecko) Chrome/110.0.0.0 Mobile Safari/537.36",WebKit,Chrome,110.0.0.0,AndroidOS,13,null,null,fixation,,,,
,,,,,image-button-response,39,295259,0.0-8.0-1.4,14,1,2023-03-14 23:02:55,95c447948bfde634df5be7bb21c2f1af,"Mozilla/5.0 (Linux; Android 13; SM-G780G) AppleWebKit/537.36 (KHTML, like Gecko) Chrome/110.0.0.0 Mobile Safari/537.36",WebKit,Chrome,110.0.0.0,AndroidOS,13,9549,0,response_2,Andrena fulva,FALSE,,
,,,,,html-keyboard-response,40,295515,0.0-8.0-0.5,14,1,2023-03-14 23:02:55,95c447948bfde634df5be7bb21c2f1af,"Mozilla/5.0 (Linux; Android 13; SM-G780G) AppleWebKit/537.36 (KHTML, like Gecko) Chrome/110.0.0.0 Mobile Safari/537.36",WebKit,Chrome,110.0.0.0,AndroidOS,13,null,null,fixation,,,,
,,,,,image-button-response,41,300957,0.0-8.0-1.5,14,1,2023-03-14 23:02:55,95c447948bfde634df5be7bb21c2f1af,"Mozilla/5.0 (Linux; Android 13; SM-G780G) AppleWebKit/537.36 (KHTML, like Gecko) Chrome/110.0.0.0 Mobile Safari/537.36",WebKit,Chrome,110.0.0.0,AndroidOS,13,5436,2,response_2,Andrena flavipes,FALSE,,
,,,,,html-button-response,42,304062,0.0-9.0,14,1,2023-03-14 23:02:55,95c447948bfde634df5be7bb21c2f1af,"Mozilla/5.0 (Linux; Android 13; SM-G780G) AppleWebKit/537.36 (KHTML, like Gecko) Chrome/110.0.0.0 Mobile Safari/537.36",WebKit,Chrome,110.0.0.0,AndroidOS,13,3101,0,,,,,
,,,,,html-button-response,43,305459,0.0-10.0,14,1,2023-03-14 23:02:55,95c447948bfde634df5be7bb21c2f1af,"Mozilla/5.0 (Linux; Android 13; SM-G780G) AppleWebKit/537.36 (KHTML, like Gecko) Chrome/110.0.0.0 Mobile Safari/537.36",WebKit,Chrome,110.0.0.0,AndroidOS,13,1394,0,,,,,
TRUE,FALSE,[],[],[],preload,0,928,0.0-0.0,18,1,2023-03-15 11:03:50,95c447948bfde634df5be7bb21c2f1af,Mozilla/5.0 (Windows NT 10.0; Win64; x64; rv:109.0) Gecko/20100101 Firefox/110.0,,Firefox,110,Windows,10,,,,,,,
,,,,,html-button-response,1,67960,0.0-1.0,18,1,2023-03-15 11:03:50,95c447948bfde634df5be7bb21c2f1af,Mozilla/5.0 (Windows NT 10.0; Win64; x64; rv:109.0) Gecko/20100101 Firefox/110.0,,Firefox,110,Windows,10,67030,0,,,,,
,,,,,html-button-response,2,103678,0.0-2.0,18,1,2023-03-15 11:03:50,95c447948bfde634df5be7bb21c2f1af,Mozilla/5.0 (Windows NT 10.0; Win64; x64; rv:109.0) Gecko/20100101 Firefox/110.0,,Firefox,110,Windows,10,35717,0,,,,,
,,,,,html-button-response,3,183402,0.0-3.0,18,1,2023-03-15 11:03:50,95c447948bfde634df5be7bb21c2f1af,Mozilla/5.0 (Windows NT 10.0; Win64; x64; rv:109.0) Gecko/20100101 Firefox/110.0,,Firefox,110,Windows,10,79721,0,,,,,
,,,,,html-keyboard-response,4,184664,0.0-4.0-0.0,18,1,2023-03-15 11:03:50,95c447948bfde634df5be7bb21c2f1af,Mozilla/5.0 (Windows NT 10.0; Win64; x64; rv:109.0) Gecko/20100101 Firefox/110.0,,Firefox,110,Windows,10,null,null,fixation,,,,
,,,,,image-button-response,5,206612,0.0-4.0-1.0,18,1,2023-03-15 11:03:50,95c447948bfde634df5be7bb21c2f1af,Mozilla/5.0 (Windows NT 10.0; Win64; x64; rv:109.0) Gecko/20100101 Firefox/110.0,,Firefox,110,Windows,10,21943,0,response_1,Andrena flavipes,FALSE,,
,,,,,html-keyboard-response,6,207123,0.0-4.0-0.1,18,1,2023-03-15 11:03:50,95c447948bfde634df5be7bb21c2f1af,Mozilla/5.0 (Windows NT 10.0; Win64; x64; rv:109.0) Gecko/20100101 Firefox/110.0,,Firefox,110,Windows,10,null,null,fixation,,,,
,,,,,image-button-response,7,222298,0.0-4.0-1.1,18,1,2023-03-15 11:03:50,95c447948bfde634df5be7bb21c2f1af,Mozilla/5.0 (Windows NT 10.0; Win64; x64; rv:109.0) Gecko/20100101 Firefox/110.0,,Firefox,110,Windows,10,15167,5,response_1,Bombus pratorum,TRUE,,
,,,,,html-keyboard-response,8,223062,0.0-4.0-0.2,18,1,2023-03-15 11:03:50,95c447948bfde634df5be7bb21c2f1af,Mozilla/5.0 (Windows NT 10.0; Win64; x64; rv:109.0) Gecko/20100101 Firefox/110.0,,Firefox,110,Windows,10,null,null,fixation,,,,
,,,,,image-button-response,9,236205,0.0-4.0-1.2,18,1,2023-03-15 11:03:50,95c447948bfde634df5be7bb21c2f1af,Mozilla/5.0 (Windows NT 10.0; Win64; x64; rv:109.0) Gecko/20100101 Firefox/110.0,,Firefox,110,Windows,10,13136,4,response_1,Bombus hortorum,FALSE,,
,,,,,html-keyboard-response,10,236460,0.0-4.0-0.3,18,1,2023-03-15 11:03:50,95c447948bfde634df5be7bb21c2f1af,Mozilla/5.0 (Windows NT 10.0; Win64; x64; rv:109.0) Gecko/20100101 Firefox/110.0,,Firefox,110,Windows,10,null,null,fixation,,,,
,,,,,image-button-response,11,249591,0.0-4.0-1.3,18,1,2023-03-15 11:03:50,95c447948bfde634df5be7bb21c2f1af,Mozilla/5.0 (Windows NT 10.0; Win64; x64; rv:109.0) Gecko/20100101 Firefox/110.0,,Firefox,110,Windows,10,13128,0,response_1,Andrena bicolor,TRUE,,
,,,,,html-keyboard-response,12,250345,0.0-4.0-0.4,18,1,2023-03-15 11:03:50,95c447948bfde634df5be7bb21c2f1af,Mozilla/5.0 (Windows NT 10.0; Win64; x64; rv:109.0) Gecko/20100101 Firefox/110.0,,Firefox,110,Windows,10,null,null,fixation,,,,
,,,,,image-button-response,13,256403,0.0-4.0-1.4,18,1,2023-03-15 11:03:50,95c447948bfde634df5be7bb21c2f1af,Mozilla/5.0 (Windows NT 10.0; Win64; x64; rv:109.0) Gecko/20100101 Firefox/110.0,,Firefox,110,Windows,10,6053,2,response_1,Andrena fulva,TRUE,,
,,,,,html-keyboard-response,14,257167,0.0-4.0-0.5,18,1,2023-03-15 11:03:50,95c447948bfde634df5be7bb21c2f1af,Mozilla/5.0 (Windows NT 10.0; Win64; x64; rv:109.0) Gecko/20100101 Firefox/110.0,,Firefox,110,Windows,10,null,null,fixation,,,,
,,,,,image-button-response,15,281432,0.0-4.0-1.5,18,1,2023-03-15 11:03:50,95c447948bfde634df5be7bb21c2f1af,Mozilla/5.0 (Windows NT 10.0; Win64; x64; rv:109.0) Gecko/20100101 Firefox/110.0,,Firefox,110,Windows,10,24249,5,response_1,Andrena bicolor,FALSE,,
,,,,,html-button-response,16,286181,0.0-5.0,18,1,2023-03-15 11:03:50,95c447948bfde634df5be7bb21c2f1af,Mozilla/5.0 (Windows NT 10.0; Win64; x64; rv:109.0) Gecko/20100101 Firefox/110.0,,Firefox,110,Windows,10,4748,0,,,,,
,,,,,html-keyboard-response,17,286938,0.0-6.0-0.0,18,1,2023-03-15 11:03:50,95c447948bfde634df5be7bb21c2f1af,Mozilla/5.0 (Windows NT 10.0; Win64; x64; rv:109.0) Gecko/20100101 Firefox/110.0,,Firefox,110,Windows,10,null,null,fixation,,,,
,,,,,image-button-response,18,299476,0.0-6.0-1.0,18,1,2023-03-15 11:03:50,95c447948bfde634df5be7bb21c2f1af,Mozilla/5.0 (Windows NT 10.0; Win64; x64; rv:109.0) Gecko/20100101 Firefox/110.0,,Firefox,110,Windows,10,12532,3,response_pred,Bombus lucorum,FALSE,Bombus hortorum,
,,,,,html-keyboard-response,19,299980,0.0-6.0-0.1,18,1,2023-03-15 11:03:50,95c447948bfde634df5be7bb21c2f1af,Mozilla/5.0 (Windows NT 10.0; Win64; x64; rv:109.0) Gecko/20100101 Firefox/110.0,,Firefox,110,Windows,10,null,null,fixation,,,,
,,,,,image-button-response,20,314676,0.0-6.0-1.1,18,1,2023-03-15 11:03:50,95c447948bfde634df5be7bb21c2f1af,Mozilla/5.0 (Windows NT 10.0; Win64; x64; rv:109.0) Gecko/20100101 Firefox/110.0,,Firefox,110,Windows,10,14689,4,response_pred,Bombus hortorum,FALSE,Bombus pratorum,
,,,,,html-keyboard-response,21,315439,0.0-6.0-0.2,18,1,2023-03-15 11:03:50,95c447948bfde634df5be7bb21c2f1af,Mozilla/5.0 (Windows NT 10.0; Win64; x64; rv:109.0) Gecko/20100101 Firefox/110.0,,Firefox,110,Windows,10,null,null,fixation,,,,
,,,,,image-button-response,22,328716,0.0-6.0-1.2,18,1,2023-03-15 11:03:50,95c447948bfde634df5be7bb21c2f1af,Mozilla/5.0 (Windows NT 10.0; Win64; x64; rv:109.0) Gecko/20100101 Firefox/110.0,,Firefox,110,Windows,10,13252,1,response_pred,Andrena flavipes,TRUE,Andrena flavipes,
,,,,,html-keyboard-response,23,329478,0.0-6.0-0.3,18,1,2023-03-15 11:03:50,95c447948bfde634df5be7bb21c2f1af,Mozilla/5.0 (Windows NT 10.0; Win64; x64; rv:109.0) Gecko/20100101 Firefox/110.0,,Firefox,110,Windows,10,null,null,fixation,,,,
,,,,,image-button-response,24,359838,0.0-6.0-1.3,18,1,2023-03-15 11:03:50,95c447948bfde634df5be7bb21c2f1af,Mozilla/5.0 (Windows NT 10.0; Win64; x64; rv:109.0) Gecko/20100101 Firefox/110.0,,Firefox,110,Windows,10,30348,2,response_pred,Andrena bicolor,FALSE,Andrena bicolor,
,,,,,html-keyboard-response,25,360599,0.0-6.0-0.4,18,1,2023-03-15 11:03:50,95c447948bfde634df5be7bb21c2f1af,Mozilla/5.0 (Windows NT 10.0; Win64; x64; rv:109.0) Gecko/20100101 Firefox/110.0,,Firefox,110,Windows,10,null,null,fixation,,,,
,,,,,image-button-response,26,364760,0.0-6.0-1.4,18,1,2023-03-15 11:03:50,95c447948bfde634df5be7bb21c2f1af,Mozilla/5.0 (Windows NT 10.0; Win64; x64; rv:109.0) Gecko/20100101 Firefox/110.0,,Firefox,110,Windows,10,4148,2,response_pred,Andrena fulva,TRUE,Andrena fulva,
,,,,,html-keyboard-response,27,365267,0.0-6.0-0.5,18,1,2023-03-15 11:03:50,95c447948bfde634df5be7bb21c2f1af,Mozilla/5.0 (Windows NT 10.0; Win64; x64; rv:109.0) Gecko/20100101 Firefox/110.0,,Firefox,110,Windows,10,null,null,fixation,,,,
,,,,,image-button-response,28,370353,0.0-6.0-1.5,18,1,2023-03-15 11:03:50,95c447948bfde634df5be7bb21c2f1af,Mozilla/5.0 (Windows NT 10.0; Win64; x64; rv:109.0) Gecko/20100101 Firefox/110.0,,Firefox,110,Windows,10,5075,5,response_pred,Bombus pratorum,TRUE,Bombus lucorum,
,,,,,html-button-response,29,375258,0.0-7.0,18,1,2023-03-15 11:03:50,95c447948bfde634df5be7bb21c2f1af,Mozilla/5.0 (Windows NT 10.0; Win64; x64; rv:109.0) Gecko/20100101 Firefox/110.0,,Firefox,110,Windows,10,4904,0,,,,,
,,,,,html-keyboard-response,30,375518,0.0-8.0-0.0,18,1,2023-03-15 11:03:50,95c447948bfde634df5be7bb21c2f1af,Mozilla/5.0 (Windows NT 10.0; Win64; x64; rv:109.0) Gecko/20100101 Firefox/110.0,,Firefox,110,Windows,10,null,null,fixation,,,,
,,,,,image-button-response,31,383225,0.0-8.0-1.0,18,1,2023-03-15 11:03:50,95c447948bfde634df5be7bb21c2f1af,Mozilla/5.0 (Windows NT 10.0; Win64; x64; rv:109.0) Gecko/20100101 Firefox/110.0,,Firefox,110,Windows,10,7702,5,response_2,Bombus pratorum,TRUE,,
,,,,,html-keyboard-response,32,383989,0.0-8.0-0.1,18,1,2023-03-15 11:03:50,95c447948bfde634df5be7bb21c2f1af,Mozilla/5.0 (Windows NT 10.0; Win64; x64; rv:109.0) Gecko/20100101 Firefox/110.0,,Firefox,110,Windows,10,null,null,fixation,,,,
,,,,,image-button-response,33,401475,0.0-8.0-1.1,18,1,2023-03-15 11:03:50,95c447948bfde634df5be7bb21c2f1af,Mozilla/5.0 (Windows NT 10.0; Win64; x64; rv:109.0) Gecko/20100101 Firefox/110.0,,Firefox,110,Windows,10,17479,2,response_2,Andrena fulva,TRUE,,
,,,,,html-keyboard-response,34,402239,0.0-8.0-0.2,18,1,2023-03-15 11:03:50,95c447948bfde634df5be7bb21c2f1af,Mozilla/5.0 (Windows NT 10.0; Win64; x64; rv:109.0) Gecko/20100101 Firefox/110.0,,Firefox,110,Windows,10,null,null,fixation,,,,
,,,,,image-button-response,35,408520,0.0-8.0-1.2,18,1,2023-03-15 11:03:50,95c447948bfde634df5be7bb21c2f1af,Mozilla/5.0 (Windows NT 10.0; Win64; x64; rv:109.0) Gecko/20100101 Firefox/110.0,,Firefox,110,Windows,10,6271,1,response_2,Andrena flavipes,TRUE,,
,,,,,html-keyboard-response,36,408776,0.0-8.0-0.3,18,1,2023-03-15 11:03:50,95c447948bfde634df5be7bb21c2f1af,Mozilla/5.0 (Windows NT 10.0; Win64; x64; rv:109.0) Gecko/20100101 Firefox/110.0,,Firefox,110,Windows,10,null,null,fixation,,,,
,,,,,image-button-response,37,414432,0.0-8.0-1.3,18,1,2023-03-15 11:03:50,95c447948bfde634df5be7bb21c2f1af,Mozilla/5.0 (Windows NT 10.0; Win64; x64; rv:109.0) Gecko/20100101 Firefox/110.0,,Firefox,110,Windows,10,5649,3,response_2,Bombus lucorum,FALSE,,
,,,,,html-keyboard-response,38,414695,0.0-8.0-0.4,18,1,2023-03-15 11:03:50,95c447948bfde634df5be7bb21c2f1af,Mozilla/5.0 (Windows NT 10.0; Win64; x64; rv:109.0) Gecko/20100101 Firefox/110.0,,Firefox,110,Windows,10,null,null,fixation,,,,
,,,,,image-button-response,39,423414,0.0-8.0-1.4,18,1,2023-03-15 11:03:50,95c447948bfde634df5be7bb21c2f1af,Mozilla/5.0 (Windows NT 10.0; Win64; x64; rv:109.0) Gecko/20100101 Firefox/110.0,,Firefox,110,Windows,10,8711,4,response_2,Bombus hortorum,FALSE,,
,,,,,html-keyboard-response,40,423929,0.0-8.0-0.5,18,1,2023-03-15 11:03:50,95c447948bfde634df5be7bb21c2f1af,Mozilla/5.0 (Windows NT 10.0; Win64; x64; rv:109.0) Gecko/20100101 Firefox/110.0,,Firefox,110,Windows,10,null,null,fixation,,,,
,,,,,image-button-response,41,430708,0.0-8.0-1.5,18,1,2023-03-15 11:03:50,95c447948bfde634df5be7bb21c2f1af,Mozilla/5.0 (Windows NT 10.0; Win64; x64; rv:109.0) Gecko/20100101 Firefox/110.0,,Firefox,110,Windows,10,6774,3,response_2,Bombus lucorum,FALSE,,
,,,,,html-button-response,42,433088,0.0-9.0,18,1,2023-03-15 11:03:50,95c447948bfde634df5be7bb21c2f1af,Mozilla/5.0 (Windows NT 10.0; Win64; x64; rv:109.0) Gecko/20100101 Firefox/110.0,,Firefox,110,Windows,10,2378,0,,,,,
,,,,,html-button-response,43,434177,0.0-10.0,18,1,2023-03-15 11:03:50,95c447948bfde634df5be7bb21c2f1af,Mozilla/5.0 (Windows NT 10.0; Win64; x64; rv:109.0) Gecko/20100101 Firefox/110.0,,Firefox,110,Windows,10,1088,0,,,,,
TRUE,FALSE,[],[],[],preload,0,593,0.0-0.0,29,1,2023-03-15 19:15:26,95c447948bfde634df5be7bb21c2f1af,"Mozilla/5.0 (Windows NT 10.0; Win64; x64) AppleWebKit/537.36 (KHTML, like Gecko) Chrome/111.0.0.0 Safari/537.36",WebKit,Chrome,111.0.0.0,Windows,10,,,,,,,
,,,,,html-button-response,1,5857,0.0-1.0,29,1,2023-03-15 19:15:26,95c447948bfde634df5be7bb21c2f1af,"Mozilla/5.0 (Windows NT 10.0; Win64; x64) AppleWebKit/537.36 (KHTML, like Gecko) Chrome/111.0.0.0 Safari/537.36",WebKit,Chrome,111.0.0.0,Windows,10,5262,0,,,,,
,,,,,html-button-response,2,55303,0.0-2.0,29,1,2023-03-15 19:15:26,95c447948bfde634df5be7bb21c2f1af,"Mozilla/5.0 (Windows NT 10.0; Win64; x64) AppleWebKit/537.36 (KHTML, like Gecko) Chrome/111.0.0.0 Safari/537.36",WebKit,Chrome,111.0.0.0,Windows,10,49445,0,,,,,
,,,,,html-button-response,3,98992,0.0-3.0,29,1,2023-03-15 19:15:26,95c447948bfde634df5be7bb21c2f1af,"Mozilla/5.0 (Windows NT 10.0; Win64; x64) AppleWebKit/537.36 (KHTML, like Gecko) Chrome/111.0.0.0 Safari/537.36",WebKit,Chrome,111.0.0.0,Windows,10,43687,0,,,,,
,,,,,html-keyboard-response,4,100759,0.0-4.0-0.0,29,1,2023-03-15 19:15:26,95c447948bfde634df5be7bb21c2f1af,"Mozilla/5.0 (Windows NT 10.0; Win64; x64) AppleWebKit/537.36 (KHTML, like Gecko) Chrome/111.0.0.0 Safari/537.36",WebKit,Chrome,111.0.0.0,Windows,10,null,null,fixation,,,,
,,,,,image-button-response,5,138942,0.0-4.0-1.0,29,1,2023-03-15 19:15:26,95c447948bfde634df5be7bb21c2f1af,"Mozilla/5.0 (Windows NT 10.0; Win64; x64) AppleWebKit/537.36 (KHTML, like Gecko) Chrome/111.0.0.0 Safari/537.36",WebKit,Chrome,111.0.0.0,Windows,10,38174,5,response_1,Bombus pratorum,TRUE,,
,,,,,html-keyboard-response,6,139208,0.0-4.0-0.1,29,1,2023-03-15 19:15:26,95c447948bfde634df5be7bb21c2f1af,"Mozilla/5.0 (Windows NT 10.0; Win64; x64) AppleWebKit/537.36 (KHTML, like Gecko) Chrome/111.0.0.0 Safari/537.36",WebKit,Chrome,111.0.0.0,Windows,10,null,null,fixation,,,,
,,,,,image-button-response,7,151293,0.0-4.0-1.1,29,1,2023-03-15 19:15:26,95c447948bfde634df5be7bb21c2f1af,"Mozilla/5.0 (Windows NT 10.0; Win64; x64) AppleWebKit/537.36 (KHTML, like Gecko) Chrome/111.0.0.0 Safari/537.36",WebKit,Chrome,111.0.0.0,Windows,10,12079,4,response_1,Bombus pratorum,FALSE,,
,,,,,html-keyboard-response,8,152045,0.0-4.0-0.2,29,1,2023-03-15 19:15:26,95c447948bfde634df5be7bb21c2f1af,"Mozilla/5.0 (Windows NT 10.0; Win64; x64) AppleWebKit/537.36 (KHTML, like Gecko) Chrome/111.0.0.0 Safari/537.36",WebKit,Chrome,111.0.0.0,Windows,10,null,null,fixation,,,,
,,,,,image-button-response,9,161437,0.0-4.0-1.2,29,1,2023-03-15 19:15:26,95c447948bfde634df5be7bb21c2f1af,"Mozilla/5.0 (Windows NT 10.0; Win64; x64) AppleWebKit/537.36 (KHTML, like Gecko) Chrome/111.0.0.0 Safari/537.36",WebKit,Chrome,111.0.0.0,Windows,10,9386,1,response_1,Andrena bicolor,FALSE,,
,,,,,html-keyboard-response,10,162188,0.0-4.0-0.3,29,1,2023-03-15 19:15:26,95c447948bfde634df5be7bb21c2f1af,"Mozilla/5.0 (Windows NT 10.0; Win64; x64) AppleWebKit/537.36 (KHTML, like Gecko) Chrome/111.0.0.0 Safari/537.36",WebKit,Chrome,111.0.0.0,Windows,10,null,null,fixation,,,,
,,,,,image-button-response,11,168392,0.0-4.0-1.3,29,1,2023-03-15 19:15:26,95c447948bfde634df5be7bb21c2f1af,"Mozilla/5.0 (Windows NT 10.0; Win64; x64) AppleWebKit/537.36 (KHTML, like Gecko) Chrome/111.0.0.0 Safari/537.36",WebKit,Chrome,111.0.0.0,Windows,10,6202,2,response_1,Andrena flavipes,FALSE,,
,,,,,html-keyboard-response,12,168657,0.0-4.0-0.4,29,1,2023-03-15 19:15:26,95c447948bfde634df5be7bb21c2f1af,"Mozilla/5.0 (Windows NT 10.0; Win64; x64) AppleWebKit/537.36 (KHTML, like Gecko) Chrome/111.0.0.0 Safari/537.36",WebKit,Chrome,111.0.0.0,Windows,10,null,null,fixation,,,,
,,,,,image-button-response,13,180333,0.0-4.0-1.4,29,1,2023-03-15 19:15:26,95c447948bfde634df5be7bb21c2f1af,"Mozilla/5.0 (Windows NT 10.0; Win64; x64) AppleWebKit/537.36 (KHTML, like Gecko) Chrome/111.0.0.0 Safari/537.36",WebKit,Chrome,111.0.0.0,Windows,10,11665,3,response_1,Andrena fulva,FALSE,,
,,,,,html-keyboard-response,14,181084,0.0-4.0-0.5,29,1,2023-03-15 19:15:26,95c447948bfde634df5be7bb21c2f1af,"Mozilla/5.0 (Windows NT 10.0; Win64; x64) AppleWebKit/537.36 (KHTML, like Gecko) Chrome/111.0.0.0 Safari/537.36",WebKit,Chrome,111.0.0.0,Windows,10,null,null,fixation,,,,
,,,,,image-button-response,15,185516,0.0-4.0-1.5,29,1,2023-03-15 19:15:26,95c447948bfde634df5be7bb21c2f1af,"Mozilla/5.0 (Windows NT 10.0; Win64; x64) AppleWebKit/537.36 (KHTML, like Gecko) Chrome/111.0.0.0 Safari/537.36",WebKit,Chrome,111.0.0.0,Windows,10,4427,3,response_1,Bombus hortorum,TRUE,,
,,,,,html-button-response,16,195181,0.0-5.0,29,1,2023-03-15 19:15:26,95c447948bfde634df5be7bb21c2f1af,"Mozilla/5.0 (Windows NT 10.0; Win64; x64) AppleWebKit/537.36 (KHTML, like Gecko) Chrome/111.0.0.0 Safari/537.36",WebKit,Chrome,111.0.0.0,Windows,10,9663,0,,,,,
,,,,,html-keyboard-response,17,195932,0.0-6.0-0.0,29,1,2023-03-15 19:15:26,95c447948bfde634df5be7bb21c2f1af,"Mozilla/5.0 (Windows NT 10.0; Win64; x64) AppleWebKit/537.36 (KHTML, like Gecko) Chrome/111.0.0.0 Safari/537.36",WebKit,Chrome,111.0.0.0,Windows,10,null,null,fixation,,,,
,,,,,image-button-response,18,210882,0.0-6.0-1.0,29,1,2023-03-15 19:15:26,95c447948bfde634df5be7bb21c2f1af,"Mozilla/5.0 (Windows NT 10.0; Win64; x64) AppleWebKit/537.36 (KHTML, like Gecko) Chrome/111.0.0.0 Safari/537.36",WebKit,Chrome,111.0.0.0,Windows,10,14941,0,response_pred,Andrena bicolor,TRUE,Andrena bicolor,
,,,,,html-keyboard-response,19,211137,0.0-6.0-0.1,29,1,2023-03-15 19:15:26,95c447948bfde634df5be7bb21c2f1af,"Mozilla/5.0 (Windows NT 10.0; Win64; x64) AppleWebKit/537.36 (KHTML, like Gecko) Chrome/111.0.0.0 Safari/537.36",WebKit,Chrome,111.0.0.0,Windows,10,null,null,fixation,,,,
,,,,,image-button-response,20,233726,0.0-6.0-1.1,29,1,2023-03-15 19:15:26,95c447948bfde634df5be7bb21c2f1af,"Mozilla/5.0 (Windows NT 10.0; Win64; x64) AppleWebKit/537.36 (KHTML, like Gecko) Chrome/111.0.0.0 Safari/537.36",WebKit,Chrome,111.0.0.0,Windows,10,22581,3,response_pred,Bombus pratorum,FALSE,Bombus lucorum,
,,,,,html-keyboard-response,21,233978,0.0-6.0-0.2,29,1,2023-03-15 19:15:26,95c447948bfde634df5be7bb21c2f1af,"Mozilla/5.0 (Windows NT 10.0; Win64; x64) AppleWebKit/537.36 (KHTML, like Gecko) Chrome/111.0.0.0 Safari/537.36",WebKit,Chrome,111.0.0.0,Windows,10,null,null,fixation,,,,
,,,,,image-button-response,22,240758,0.0-6.0-1.2,29,1,2023-03-15 19:15:26,95c447948bfde634df5be7bb21c2f1af,"Mozilla/5.0 (Windows NT 10.0; Win64; x64) AppleWebKit/537.36 (KHTML, like Gecko) Chrome/111.0.0.0 Safari/537.36",WebKit,Chrome,111.0.0.0,Windows,10,6773,2,response_pred,Andrena fulva,TRUE,Andrena fulva,
,,,,,html-keyboard-response,23,241260,0.0-6.0-0.3,29,1,2023-03-15 19:15:26,95c447948bfde634df5be7bb21c2f1af,"Mozilla/5.0 (Windows NT 10.0; Win64; x64) AppleWebKit/537.36 (KHTML, like Gecko) Chrome/111.0.0.0 Safari/537.36",WebKit,Chrome,111.0.0.0,Windows,10,null,null,fixation,,,,
,,,,,image-button-response,24,282438,0.0-6.0-1.3,29,1,2023-03-15 19:15:26,95c447948bfde634df5be7bb21c2f1af,"Mozilla/5.0 (Windows NT 10.0; Win64; x64) AppleWebKit/537.36 (KHTML, like Gecko) Chrome/111.0.0.0 Safari/537.36",WebKit,Chrome,111.0.0.0,Windows,10,41174,4,response_pred,Bombus lucorum,TRUE,Bombus hortorum,
,,,,,html-keyboard-response,25,283190,0.0-6.0-0.4,29,1,2023-03-15 19:15:26,95c447948bfde634df5be7bb21c2f1af,"Mozilla/5.0 (Windows NT 10.0; Win64; x64) AppleWebKit/537.36 (KHTML, like Gecko) Chrome/111.0.0.0 Safari/537.36",WebKit,Chrome,111.0.0.0,Windows,10,null,null,fixation,,,,
,,,,,image-button-response,26,305370,0.0-6.0-1.4,29,1,2023-03-15 19:15:26,95c447948bfde634df5be7bb21c2f1af,"Mozilla/5.0 (Windows NT 10.0; Win64; x64) AppleWebKit/537.36 (KHTML, like Gecko) Chrome/111.0.0.0 Safari/537.36",WebKit,Chrome,111.0.0.0,Windows,10,22173,3,response_pred,Bombus hortorum,TRUE,Bombus pratorum,
,,,,,html-keyboard-response,27,305623,0.0-6.0-0.5,29,1,2023-03-15 19:15:26,95c447948bfde634df5be7bb21c2f1af,"Mozilla/5.0 (Windows NT 10.0; Win64; x64) AppleWebKit/537.36 (KHTML, like Gecko) Chrome/111.0.0.0 Safari/537.36",WebKit,Chrome,111.0.0.0,Windows,10,null,null,fixation,,,,
,,,,,image-button-response,28,315445,0.0-6.0-1.5,29,1,2023-03-15 19:15:26,95c447948bfde634df5be7bb21c2f1af,"Mozilla/5.0 (Windows NT 10.0; Win64; x64) AppleWebKit/537.36 (KHTML, like Gecko) Chrome/111.0.0.0 Safari/537.36",WebKit,Chrome,111.0.0.0,Windows,10,9808,1,response_pred,Andrena flavipes,TRUE,Andrena flavipes,
,,,,,html-button-response,29,324475,0.0-7.0,29,1,2023-03-15 19:15:26,95c447948bfde634df5be7bb21c2f1af,"Mozilla/5.0 (Windows NT 10.0; Win64; x64) AppleWebKit/537.36 (KHTML, like Gecko) Chrome/111.0.0.0 Safari/537.36",WebKit,Chrome,111.0.0.0,Windows,10,9029,0,,,,,
,,,,,html-keyboard-response,30,324977,0.0-8.0-0.0,29,1,2023-03-15 19:15:26,95c447948bfde634df5be7bb21c2f1af,"Mozilla/5.0 (Windows NT 10.0; Win64; x64) AppleWebKit/537.36 (KHTML, like Gecko) Chrome/111.0.0.0 Safari/537.36",WebKit,Chrome,111.0.0.0,Windows,10,null,null,fixation,,,,
,,,,,image-button-response,31,335818,0.0-8.0-1.0,29,1,2023-03-15 19:15:26,95c447948bfde634df5be7bb21c2f1af,"Mozilla/5.0 (Windows NT 10.0; Win64; x64) AppleWebKit/537.36 (KHTML, like Gecko) Chrome/111.0.0.0 Safari/537.36",WebKit,Chrome,111.0.0.0,Windows,10,10835,3,response_2,Andrena fulva,FALSE,,
,,,,,html-keyboard-response,32,336570,0.0-8.0-0.1,29,1,2023-03-15 19:15:26,95c447948bfde634df5be7bb21c2f1af,"Mozilla/5.0 (Windows NT 10.0; Win64; x64) AppleWebKit/537.36 (KHTML, like Gecko) Chrome/111.0.0.0 Safari/537.36",WebKit,Chrome,111.0.0.0,Windows,10,null,null,fixation,,,,
,,,,,image-button-response,33,342465,0.0-8.0-1.1,29,1,2023-03-15 19:15:26,95c447948bfde634df5be7bb21c2f1af,"Mozilla/5.0 (Windows NT 10.0; Win64; x64) AppleWebKit/537.36 (KHTML, like Gecko) Chrome/111.0.0.0 Safari/537.36",WebKit,Chrome,111.0.0.0,Windows,10,5890,4,response_2,Bombus lucorum,TRUE,,
,,,,,html-keyboard-response,34,342967,0.0-8.0-0.2,29,1,2023-03-15 19:15:26,95c447948bfde634df5be7bb21c2f1af,"Mozilla/5.0 (Windows NT 10.0; Win64; x64) AppleWebKit/537.36 (KHTML, like Gecko) Chrome/111.0.0.0 Safari/537.36",WebKit,Chrome,111.0.0.0,Windows,10,null,null,fixation,,,,
,,,,,image-button-response,35,345852,0.0-8.0-1.2,29,1,2023-03-15 19:15:26,95c447948bfde634df5be7bb21c2f1af,"Mozilla/5.0 (Windows NT 10.0; Win64; x64) AppleWebKit/537.36 (KHTML, like Gecko) Chrome/111.0.0.0 Safari/537.36",WebKit,Chrome,111.0.0.0,Windows,10,2878,1,response_2,Andrena bicolor,FALSE,,
,,,,,html-keyboard-response,36,346114,0.0-8.0-0.3,29,1,2023-03-15 19:15:26,95c447948bfde634df5be7bb21c2f1af,"Mozilla/5.0 (Windows NT 10.0; Win64; x64) AppleWebKit/537.36 (KHTML, like Gecko) Chrome/111.0.0.0 Safari/537.36",WebKit,Chrome,111.0.0.0,Windows,10,null,null,fixation,,,,
,,,,,image-button-response,37,354794,0.0-8.0-1.3,29,1,2023-03-15 19:15:26,95c447948bfde634df5be7bb21c2f1af,"Mozilla/5.0 (Windows NT 10.0; Win64; x64) AppleWebKit/537.36 (KHTML, like Gecko) Chrome/111.0.0.0 Safari/537.36",WebKit,Chrome,111.0.0.0,Windows,10,8670,3,response_2,Bombus hortorum,TRUE,,
,,,,,html-keyboard-response,38,355296,0.0-8.0-0.4,29,1,2023-03-15 19:15:26,95c447948bfde634df5be7bb21c2f1af,"Mozilla/5.0 (Windows NT 10.0; Win64; x64) AppleWebKit/537.36 (KHTML, like Gecko) Chrome/111.0.0.0 Safari/537.36",WebKit,Chrome,111.0.0.0,Windows,10,null,null,fixation,,,,
,,,,,image-button-response,39,364463,0.0-8.0-1.4,29,1,2023-03-15 19:15:26,95c447948bfde634df5be7bb21c2f1af,"Mozilla/5.0 (Windows NT 10.0; Win64; x64) AppleWebKit/537.36 (KHTML, like Gecko) Chrome/111.0.0.0 Safari/537.36",WebKit,Chrome,111.0.0.0,Windows,10,9161,4,response_2,Bombus lucorum,TRUE,,
,,,,,html-keyboard-response,40,364980,0.0-8.0-0.5,29,1,2023-03-15 19:15:26,95c447948bfde634df5be7bb21c2f1af,"Mozilla/5.0 (Windows NT 10.0; Win64; x64) AppleWebKit/537.36 (KHTML, like Gecko) Chrome/111.0.0.0 Safari/537.36",WebKit,Chrome,111.0.0.0,Windows,10,null,null,fixation,,,,
,,,,,image-button-response,41,372327,0.0-8.0-1.5,29,1,2023-03-15 19:15:26,95c447948bfde634df5be7bb21c2f1af,"Mozilla/5.0 (Windows NT 10.0; Win64; x64) AppleWebKit/537.36 (KHTML, like Gecko) Chrome/111.0.0.0 Safari/537.36",WebKit,Chrome,111.0.0.0,Windows,10,7338,1,response_2,Andrena flavipes,TRUE,,
,,,,,html-button-response,42,375830,0.0-9.0,29,1,2023-03-15 19:15:26,95c447948bfde634df5be7bb21c2f1af,"Mozilla/5.0 (Windows NT 10.0; Win64; x64) AppleWebKit/537.36 (KHTML, like Gecko) Chrome/111.0.0.0 Safari/537.36",WebKit,Chrome,111.0.0.0,Windows,10,3503,0,,,,,
,,,,,html-button-response,43,377349,0.0-10.0,29,1,2023-03-15 19:15:26,95c447948bfde634df5be7bb21c2f1af,"Mozilla/5.0 (Windows NT 10.0; Win64; x64) AppleWebKit/537.36 (KHTML, like Gecko) Chrome/111.0.0.0 Safari/537.36",WebKit,Chrome,111.0.0.0,Windows,10,1518,0,,,,,
TRUE,FALSE,[],[],[],preload,0,1208,0.0-0.0,25,1,2023-03-15 17:16:10,95c447948bfde634df5be7bb21c2f1af,"Mozilla/5.0 (Macintosh; Intel Mac OS X 10_15_7) AppleWebKit/537.36 (KHTML, like Gecko) Chrome/111.0.0.0 Safari/537.36",Macintosh,Chrome,111.0.0.0,OS X,10_15_7,,,,,,,
,,,,,html-button-response,1,8381,0.0-1.0,25,1,2023-03-15 17:16:10,95c447948bfde634df5be7bb21c2f1af,"Mozilla/5.0 (Macintosh; Intel Mac OS X 10_15_7) AppleWebKit/537.36 (KHTML, like Gecko) Chrome/111.0.0.0 Safari/537.36",Macintosh,Chrome,111.0.0.0,OS X,10_15_7,7172,0,,,,,
,,,,,html-button-response,2,52729,0.0-2.0,25,1,2023-03-15 17:16:10,95c447948bfde634df5be7bb21c2f1af,"Mozilla/5.0 (Macintosh; Intel Mac OS X 10_15_7) AppleWebKit/537.36 (KHTML, like Gecko) Chrome/111.0.0.0 Safari/537.36",Macintosh,Chrome,111.0.0.0,OS X,10_15_7,44349,0,,,,,
,,,,,html-button-response,3,101315,0.0-3.0,25,1,2023-03-15 17:16:10,95c447948bfde634df5be7bb21c2f1af,"Mozilla/5.0 (Macintosh; Intel Mac OS X 10_15_7) AppleWebKit/537.36 (KHTML, like Gecko) Chrome/111.0.0.0 Safari/537.36",Macintosh,Chrome,111.0.0.0,OS X,10_15_7,48585,0,,,,,
,,,,,html-keyboard-response,4,103084,0.0-4.0-0.0,25,1,2023-03-15 17:16:10,95c447948bfde634df5be7bb21c2f1af,"Mozilla/5.0 (Macintosh; Intel Mac OS X 10_15_7) AppleWebKit/537.36 (KHTML, like Gecko) Chrome/111.0.0.0 Safari/537.36",Macintosh,Chrome,111.0.0.0,OS X,10_15_7,null,null,fixation,,,,
,,,,,image-button-response,5,146439,0.0-4.0-1.0,25,1,2023-03-15 17:16:10,95c447948bfde634df5be7bb21c2f1af,"Mozilla/5.0 (Macintosh; Intel Mac OS X 10_15_7) AppleWebKit/537.36 (KHTML, like Gecko) Chrome/111.0.0.0 Safari/537.36",Macintosh,Chrome,111.0.0.0,OS X,10_15_7,43348,5,response_1,Bombus pratorum,TRUE,,
,,,,,html-keyboard-response,6,146943,0.0-4.0-0.1,25,1,2023-03-15 17:16:10,95c447948bfde634df5be7bb21c2f1af,"Mozilla/5.0 (Macintosh; Intel Mac OS X 10_15_7) AppleWebKit/537.36 (KHTML, like Gecko) Chrome/111.0.0.0 Safari/537.36",Macintosh,Chrome,111.0.0.0,OS X,10_15_7,null,null,fixation,,,,
,,,,,image-button-response,7,160231,0.0-4.0-1.1,25,1,2023-03-15 17:16:10,95c447948bfde634df5be7bb21c2f1af,"Mozilla/5.0 (Macintosh; Intel Mac OS X 10_15_7) AppleWebKit/537.36 (KHTML, like Gecko) Chrome/111.0.0.0 Safari/537.36",Macintosh,Chrome,111.0.0.0,OS X,10_15_7,13285,0,response_1,Andrena bicolor,TRUE,,
,,,,,html-keyboard-response,8,160733,0.0-4.0-0.2,25,1,2023-03-15 17:16:10,95c447948bfde634df5be7bb21c2f1af,"Mozilla/5.0 (Macintosh; Intel Mac OS X 10_15_7) AppleWebKit/537.36 (KHTML, like Gecko) Chrome/111.0.0.0 Safari/537.36",Macintosh,Chrome,111.0.0.0,OS X,10_15_7,null,null,fixation,,,,
,,,,,image-button-response,9,178788,0.0-4.0-1.2,25,1,2023-03-15 17:16:10,95c447948bfde634df5be7bb21c2f1af,"Mozilla/5.0 (Macintosh; Intel Mac OS X 10_15_7) AppleWebKit/537.36 (KHTML, like Gecko) Chrome/111.0.0.0 Safari/537.36",Macintosh,Chrome,111.0.0.0,OS X,10_15_7,18052,4,response_1,Bombus lucorum,TRUE,,
,,,,,html-keyboard-response,10,179549,0.0-4.0-0.3,25,1,2023-03-15 17:16:10,95c447948bfde634df5be7bb21c2f1af,"Mozilla/5.0 (Macintosh; Intel Mac OS X 10_15_7) AppleWebKit/537.36 (KHTML, like Gecko) Chrome/111.0.0.0 Safari/537.36",Macintosh,Chrome,111.0.0.0,OS X,10_15_7,null,null,fixation,,,,
,,,,,image-button-response,11,203477,0.0-4.0-1.3,25,1,2023-03-15 17:16:10,95c447948bfde634df5be7bb21c2f1af,"Mozilla/5.0 (Macintosh; Intel Mac OS X 10_15_7) AppleWebKit/537.36 (KHTML, like Gecko) Chrome/111.0.0.0 Safari/537.36",Macintosh,Chrome,111.0.0.0,OS X,10_15_7,23925,1,response_1,Andrena flavipes,TRUE,,
,,,,,html-keyboard-response,12,204235,0.0-4.0-0.4,25,1,2023-03-15 17:16:10,95c447948bfde634df5be7bb21c2f1af,"Mozilla/5.0 (Macintosh; Intel Mac OS X 10_15_7) AppleWebKit/537.36 (KHTML, like Gecko) Chrome/111.0.0.0 Safari/537.36",Macintosh,Chrome,111.0.0.0,OS X,10_15_7,null,null,fixation,,,,
,,,,,image-button-response,13,223915,0.0-4.0-1.4,25,1,2023-03-15 17:16:10,95c447948bfde634df5be7bb21c2f1af,"Mozilla/5.0 (Macintosh; Intel Mac OS X 10_15_7) AppleWebKit/537.36 (KHTML, like Gecko) Chrome/111.0.0.0 Safari/537.36",Macintosh,Chrome,111.0.0.0,OS X,10_15_7,19677,1,response_1,Andrena flavipes,TRUE,,
,,,,,html-keyboard-response,14,224175,0.0-4.0-0.5,25,1,2023-03-15 17:16:10,95c447948bfde634df5be7bb21c2f1af,"Mozilla/5.0 (Macintosh; Intel Mac OS X 10_15_7) AppleWebKit/537.36 (KHTML, like Gecko) Chrome/111.0.0.0 Safari/537.36",Macintosh,Chrome,111.0.0.0,OS X,10_15_7,null,null,fixation,,,,
,,,,,image-button-response,15,234109,0.0-4.0-1.5,25,1,2023-03-15 17:16:10,95c447948bfde634df5be7bb21c2f1af,"Mozilla/5.0 (Macintosh; Intel Mac OS X 10_15_7) AppleWebKit/537.36 (KHTML, like Gecko) Chrome/111.0.0.0 Safari/537.36",Macintosh,Chrome,111.0.0.0,OS X,10_15_7,9931,2,response_1,Andrena fulva,TRUE,,
,,,,,html-button-response,16,251695,0.0-5.0,25,1,2023-03-15 17:16:10,95c447948bfde634df5be7bb21c2f1af,"Mozilla/5.0 (Macintosh; Intel Mac OS X 10_15_7) AppleWebKit/537.36 (KHTML, like Gecko) Chrome/111.0.0.0 Safari/537.36",Macintosh,Chrome,111.0.0.0,OS X,10_15_7,17584,0,,,,,
,,,,,html-keyboard-response,17,251953,0.0-6.0-0.0,25,1,2023-03-15 17:16:10,95c447948bfde634df5be7bb21c2f1af,"Mozilla/5.0 (Macintosh; Intel Mac OS X 10_15_7) AppleWebKit/537.36 (KHTML, like Gecko) Chrome/111.0.0.0 Safari/537.36",Macintosh,Chrome,111.0.0.0,OS X,10_15_7,null,null,fixation,,,,
,,,,,image-button-response,18,261092,0.0-6.0-1.0,25,1,2023-03-15 17:16:10,95c447948bfde634df5be7bb21c2f1af,"Mozilla/5.0 (Macintosh; Intel Mac OS X 10_15_7) AppleWebKit/537.36 (KHTML, like Gecko) Chrome/111.0.0.0 Safari/537.36",Macintosh,Chrome,111.0.0.0,OS X,10_15_7,9136,2,response_pred,Andrena fulva,TRUE,Andrena fulva,
,,,,,html-keyboard-response,19,261852,0.0-6.0-0.1,25,1,2023-03-15 17:16:10,95c447948bfde634df5be7bb21c2f1af,"Mozilla/5.0 (Macintosh; Intel Mac OS X 10_15_7) AppleWebKit/537.36 (KHTML, like Gecko) Chrome/111.0.0.0 Safari/537.36",Macintosh,Chrome,111.0.0.0,OS X,10_15_7,null,null,fixation,,,,
,,,,,image-button-response,20,279305,0.0-6.0-1.1,25,1,2023-03-15 17:16:10,95c447948bfde634df5be7bb21c2f1af,"Mozilla/5.0 (Macintosh; Intel Mac OS X 10_15_7) AppleWebKit/537.36 (KHTML, like Gecko) Chrome/111.0.0.0 Safari/537.36",Macintosh,Chrome,111.0.0.0,OS X,10_15_7,17450,0,response_pred,Andrena bicolor,TRUE,Andrena bicolor,
,,,,,html-keyboard-response,21,279565,0.0-6.0-0.2,25,1,2023-03-15 17:16:10,95c447948bfde634df5be7bb21c2f1af,"Mozilla/5.0 (Macintosh; Intel Mac OS X 10_15_7) AppleWebKit/537.36 (KHTML, like Gecko) Chrome/111.0.0.0 Safari/537.36",Macintosh,Chrome,111.0.0.0,OS X,10_15_7,null,null,fixation,,,,
,,,,,image-button-response,22,293130,0.0-6.0-1.2,25,1,2023-03-15 17:16:10,95c447948bfde634df5be7bb21c2f1af,"Mozilla/5.0 (Macintosh; Intel Mac OS X 10_15_7) AppleWebKit/537.36 (KHTML, like Gecko) Chrome/111.0.0.0 Safari/537.36",Macintosh,Chrome,111.0.0.0,OS X,10_15_7,13562,3,response_pred,Bombus hortorum,TRUE,Bombus pratorum,
,,,,,html-keyboard-response,23,293633,0.0-6.0-0.3,25,1,2023-03-15 17:16:10,95c447948bfde634df5be7bb21c2f1af,"Mozilla/5.0 (Macintosh; Intel Mac OS X 10_15_7) AppleWebKit/537.36 (KHTML, like Gecko) Chrome/111.0.0.0 Safari/537.36",Macintosh,Chrome,111.0.0.0,OS X,10_15_7,null,null,fixation,,,,
,,,,,image-button-response,24,305203,0.0-6.0-1.3,25,1,2023-03-15 17:16:10,95c447948bfde634df5be7bb21c2f1af,"Mozilla/5.0 (Macintosh; Intel Mac OS X 10_15_7) AppleWebKit/537.36 (KHTML, like Gecko) Chrome/111.0.0.0 Safari/537.36",Macintosh,Chrome,111.0.0.0,OS X,10_15_7,11567,1,response_pred,Andrena flavipes,TRUE,Andrena flavipes,
,,,,,html-keyboard-response,25,305468,0.0-6.0-0.4,25,1,2023-03-15 17:16:10,95c447948bfde634df5be7bb21c2f1af,"Mozilla/5.0 (Macintosh; Intel Mac OS X 10_15_7) AppleWebKit/537.36 (KHTML, like Gecko) Chrome/111.0.0.0 Safari/537.36",Macintosh,Chrome,111.0.0.0,OS X,10_15_7,null,null,fixation,,,,
,,,,,image-button-response,26,326816,0.0-6.0-1.4,25,1,2023-03-15 17:16:10,95c447948bfde634df5be7bb21c2f1af,"Mozilla/5.0 (Macintosh; Intel Mac OS X 10_15_7) AppleWebKit/537.36 (KHTML, like Gecko) Chrome/111.0.0.0 Safari/537.36",Macintosh,Chrome,111.0.0.0,OS X,10_15_7,21346,5,response_pred,Bombus pratorum,TRUE,Bombus lucorum,
,,,,,html-keyboard-response,27,327577,0.0-6.0-0.5,25,1,2023-03-15 17:16:10,95c447948bfde634df5be7bb21c2f1af,"Mozilla/5.0 (Macintosh; Intel Mac OS X 10_15_7) AppleWebKit/537.36 (KHTML, like Gecko) Chrome/111.0.0.0 Safari/537.36",Macintosh,Chrome,111.0.0.0,OS X,10_15_7,null,null,fixation,,,,
,,,,,image-button-response,28,343332,0.0-6.0-1.5,25,1,2023-03-15 17:16:10,95c447948bfde634df5be7bb21c2f1af,"Mozilla/5.0 (Macintosh; Intel Mac OS X 10_15_7) AppleWebKit/537.36 (KHTML, like Gecko) Chrome/111.0.0.0 Safari/537.36",Macintosh,Chrome,111.0.0.0,OS X,10_15_7,15752,4,response_pred,Bombus lucorum,TRUE,Bombus hortorum,
,,,,,html-button-response,29,350019,0.0-7.0,25,1,2023-03-15 17:16:10,95c447948bfde634df5be7bb21c2f1af,"Mozilla/5.0 (Macintosh; Intel Mac OS X 10_15_7) AppleWebKit/537.36 (KHTML, like Gecko) Chrome/111.0.0.0 Safari/537.36",Macintosh,Chrome,111.0.0.0,OS X,10_15_7,6685,0,,,,,
,,,,,html-keyboard-response,30,350774,0.0-8.0-0.0,25,1,2023-03-15 17:16:10,95c447948bfde634df5be7bb21c2f1af,"Mozilla/5.0 (Macintosh; Intel Mac OS X 10_15_7) AppleWebKit/537.36 (KHTML, like Gecko) Chrome/111.0.0.0 Safari/537.36",Macintosh,Chrome,111.0.0.0,OS X,10_15_7,null,null,fixation,,,,
,,,,,image-button-response,31,367087,0.0-8.0-1.0,25,1,2023-03-15 17:16:10,95c447948bfde634df5be7bb21c2f1af,"Mozilla/5.0 (Macintosh; Intel Mac OS X 10_15_7) AppleWebKit/537.36 (KHTML, like Gecko) Chrome/111.0.0.0 Safari/537.36",Macintosh,Chrome,111.0.0.0,OS X,10_15_7,16310,0,response_2,Andrena bicolor,TRUE,,
,,,,,html-keyboard-response,32,367589,0.0-8.0-0.1,25,1,2023-03-15 17:16:10,95c447948bfde634df5be7bb21c2f1af,"Mozilla/5.0 (Macintosh; Intel Mac OS X 10_15_7) AppleWebKit/537.36 (KHTML, like Gecko) Chrome/111.0.0.0 Safari/537.36",Macintosh,Chrome,111.0.0.0,OS X,10_15_7,null,null,fixation,,,,
,,,,,image-button-response,33,380349,0.0-8.0-1.1,25,1,2023-03-15 17:16:10,95c447948bfde634df5be7bb21c2f1af,"Mozilla/5.0 (Macintosh; Intel Mac OS X 10_15_7) AppleWebKit/537.36 (KHTML, like Gecko) Chrome/111.0.0.0 Safari/537.36",Macintosh,Chrome,111.0.0.0,OS X,10_15_7,12756,4,response_2,Andrena fulva,FALSE,,
,,,,,html-keyboard-response,34,381113,0.0-8.0-0.2,25,1,2023-03-15 17:16:10,95c447948bfde634df5be7bb21c2f1af,"Mozilla/5.0 (Macintosh; Intel Mac OS X 10_15_7) AppleWebKit/537.36 (KHTML, like Gecko) Chrome/111.0.0.0 Safari/537.36",Macintosh,Chrome,111.0.0.0,OS X,10_15_7,null,null,fixation,,,,
,,,,,image-button-response,35,399100,0.0-8.0-1.2,25,1,2023-03-15 17:16:10,95c447948bfde634df5be7bb21c2f1af,"Mozilla/5.0 (Macintosh; Intel Mac OS X 10_15_7) AppleWebKit/537.36 (KHTML, like Gecko) Chrome/111.0.0.0 Safari/537.36",Macintosh,Chrome,111.0.0.0,OS X,10_15_7,17984,3,response_2,Bombus hortorum,TRUE,,
,,,,,html-keyboard-response,36,399355,0.0-8.0-0.3,25,1,2023-03-15 17:16:10,95c447948bfde634df5be7bb21c2f1af,"Mozilla/5.0 (Macintosh; Intel Mac OS X 10_15_7) AppleWebKit/537.36 (KHTML, like Gecko) Chrome/111.0.0.0 Safari/537.36",Macintosh,Chrome,111.0.0.0,OS X,10_15_7,null,null,fixation,,,,
,,,,,image-button-response,37,406082,0.0-8.0-1.3,25,1,2023-03-15 17:16:10,95c447948bfde634df5be7bb21c2f1af,"Mozilla/5.0 (Macintosh; Intel Mac OS X 10_15_7) AppleWebKit/537.36 (KHTML, like Gecko) Chrome/111.0.0.0 Safari/537.36",Macintosh,Chrome,111.0.0.0,OS X,10_15_7,6723,5,response_2,Bombus pratorum,TRUE,,
,,,,,html-keyboard-response,38,406587,0.0-8.0-0.4,25,1,2023-03-15 17:16:10,95c447948bfde634df5be7bb21c2f1af,"Mozilla/5.0 (Macintosh; Intel Mac OS X 10_15_7) AppleWebKit/537.36 (KHTML, like Gecko) Chrome/111.0.0.0 Safari/537.36",Macintosh,Chrome,111.0.0.0,OS X,10_15_7,null,null,fixation,,,,
,,,,,image-button-response,39,412501,0.0-8.0-1.4,25,1,2023-03-15 17:16:10,95c447948bfde634df5be7bb21c2f1af,"Mozilla/5.0 (Macintosh; Intel Mac OS X 10_15_7) AppleWebKit/537.36 (KHTML, like Gecko) Chrome/111.0.0.0 Safari/537.36",Macintosh,Chrome,111.0.0.0,OS X,10_15_7,5911,3,response_2,Bombus hortorum,TRUE,,
,,,,,html-keyboard-response,40,413260,0.0-8.0-0.5,25,1,2023-03-15 17:16:10,95c447948bfde634df5be7bb21c2f1af,"Mozilla/5.0 (Macintosh; Intel Mac OS X 10_15_7) AppleWebKit/537.36 (KHTML, like Gecko) Chrome/111.0.0.0 Safari/537.36",Macintosh,Chrome,111.0.0.0,OS X,10_15_7,null,null,fixation,,,,
,,,,,image-button-response,41,423554,0.0-8.0-1.5,25,1,2023-03-15 17:16:10,95c447948bfde634df5be7bb21c2f1af,"Mozilla/5.0 (Macintosh; Intel Mac OS X 10_15_7) AppleWebKit/537.36 (KHTML, like Gecko) Chrome/111.0.0.0 Safari/537.36",Macintosh,Chrome,111.0.0.0,OS X,10_15_7,10290,4,response_2,Bombus lucorum,TRUE,,
,,,,,html-button-response,42,427772,0.0-9.0,25,1,2023-03-15 17:16:10,95c447948bfde634df5be7bb21c2f1af,"Mozilla/5.0 (Macintosh; Intel Mac OS X 10_15_7) AppleWebKit/537.36 (KHTML, like Gecko) Chrome/111.0.0.0 Safari/537.36",Macintosh,Chrome,111.0.0.0,OS X,10_15_7,4215,0,,,,,
,,,,,html-button-response,43,431651,0.0-10.0,25,1,2023-03-15 17:16:10,95c447948bfde634df5be7bb21c2f1af,"Mozilla/5.0 (Macintosh; Intel Mac OS X 10_15_7) AppleWebKit/537.36 (KHTML, like Gecko) Chrome/111.0.0.0 Safari/537.36",Macintosh,Chrome,111.0.0.0,OS X,10_15_7,3878,0,,,,,
TRUE,FALSE,[],[],[],preload,0,666,0.0-0.0,19,1,2023-03-15 11:50:13,95c447948bfde634df5be7bb21c2f1af,"Mozilla/5.0 (Macintosh; Intel Mac OS X 10_15_7) AppleWebKit/537.36 (KHTML, like Gecko) Chrome/111.0.0.0 Safari/537.36",Macintosh,Chrome,111.0.0.0,OS X,10_15_7,,,,,,,
,,,,,html-button-response,1,7408,0.0-1.0,19,1,2023-03-15 11:50:13,95c447948bfde634df5be7bb21c2f1af,"Mozilla/5.0 (Macintosh; Intel Mac OS X 10_15_7) AppleWebKit/537.36 (KHTML, like Gecko) Chrome/111.0.0.0 Safari/537.36",Macintosh,Chrome,111.0.0.0,OS X,10_15_7,6740,0,,,,,
,,,,,html-button-response,2,54476,0.0-2.0,19,1,2023-03-15 11:50:13,95c447948bfde634df5be7bb21c2f1af,"Mozilla/5.0 (Macintosh; Intel Mac OS X 10_15_7) AppleWebKit/537.36 (KHTML, like Gecko) Chrome/111.0.0.0 Safari/537.36",Macintosh,Chrome,111.0.0.0,OS X,10_15_7,47066,0,,,,,
,,,,,html-button-response,3,156261,0.0-3.0,19,1,2023-03-15 11:50:13,95c447948bfde634df5be7bb21c2f1af,"Mozilla/5.0 (Macintosh; Intel Mac OS X 10_15_7) AppleWebKit/537.36 (KHTML, like Gecko) Chrome/111.0.0.0 Safari/537.36",Macintosh,Chrome,111.0.0.0,OS X,10_15_7,101780,0,,,,,
,,,,,html-keyboard-response,4,157537,0.0-4.0-0.0,19,1,2023-03-15 11:50:13,95c447948bfde634df5be7bb21c2f1af,"Mozilla/5.0 (Macintosh; Intel Mac OS X 10_15_7) AppleWebKit/537.36 (KHTML, like Gecko) Chrome/111.0.0.0 Safari/537.36",Macintosh,Chrome,111.0.0.0,OS X,10_15_7,null,null,fixation,,,,
,,,,,image-button-response,5,201513,0.0-4.0-1.0,19,1,2023-03-15 11:50:13,95c447948bfde634df5be7bb21c2f1af,"Mozilla/5.0 (Macintosh; Intel Mac OS X 10_15_7) AppleWebKit/537.36 (KHTML, like Gecko) Chrome/111.0.0.0 Safari/537.36",Macintosh,Chrome,111.0.0.0,OS X,10_15_7,43965,4,response_1,Bombus lucorum,TRUE,,
,,,,,html-keyboard-response,6,202267,0.0-4.0-0.1,19,1,2023-03-15 11:50:13,95c447948bfde634df5be7bb21c2f1af,"Mozilla/5.0 (Macintosh; Intel Mac OS X 10_15_7) AppleWebKit/537.36 (KHTML, like Gecko) Chrome/111.0.0.0 Safari/537.36",Macintosh,Chrome,111.0.0.0,OS X,10_15_7,null,null,fixation,,,,
,,,,,image-button-response,7,221810,0.0-4.0-1.1,19,1,2023-03-15 11:50:13,95c447948bfde634df5be7bb21c2f1af,"Mozilla/5.0 (Macintosh; Intel Mac OS X 10_15_7) AppleWebKit/537.36 (KHTML, like Gecko) Chrome/111.0.0.0 Safari/537.36",Macintosh,Chrome,111.0.0.0,OS X,10_15_7,19544,0,response_1,Bombus lucorum,FALSE,,
,,,,,html-keyboard-response,8,222575,0.0-4.0-0.2,19,1,2023-03-15 11:50:13,95c447948bfde634df5be7bb21c2f1af,"Mozilla/5.0 (Macintosh; Intel Mac OS X 10_15_7) AppleWebKit/537.36 (KHTML, like Gecko) Chrome/111.0.0.0 Safari/537.36",Macintosh,Chrome,111.0.0.0,OS X,10_15_7,null,null,fixation,,,,
,,,,,image-button-response,9,232782,0.0-4.0-1.2,19,1,2023-03-15 11:50:13,95c447948bfde634df5be7bb21c2f1af,"Mozilla/5.0 (Macintosh; Intel Mac OS X 10_15_7) AppleWebKit/537.36 (KHTML, like Gecko) Chrome/111.0.0.0 Safari/537.36",Macintosh,Chrome,111.0.0.0,OS X,10_15_7,10214,2,response_1,Andrena bicolor,FALSE,,
,,,,,html-keyboard-response,10,233548,0.0-4.0-0.3,19,1,2023-03-15 11:50:13,95c447948bfde634df5be7bb21c2f1af,"Mozilla/5.0 (Macintosh; Intel Mac OS X 10_15_7) AppleWebKit/537.36 (KHTML, like Gecko) Chrome/111.0.0.0 Safari/537.36",Macintosh,Chrome,111.0.0.0,OS X,10_15_7,null,null,fixation,,,,
,,,,,image-button-response,11,239627,0.0-4.0-1.3,19,1,2023-03-15 11:50:13,95c447948bfde634df5be7bb21c2f1af,"Mozilla/5.0 (Macintosh; Intel Mac OS X 10_15_7) AppleWebKit/537.36 (KHTML, like Gecko) Chrome/111.0.0.0 Safari/537.36",Macintosh,Chrome,111.0.0.0,OS X,10_15_7,6079,3,response_1,Andrena flavipes,FALSE,,
,,,,,html-keyboard-response,12,240381,0.0-4.0-0.4,19,1,2023-03-15 11:50:13,95c447948bfde634df5be7bb21c2f1af,"Mozilla/5.0 (Macintosh; Intel Mac OS X 10_15_7) AppleWebKit/537.36 (KHTML, like Gecko) Chrome/111.0.0.0 Safari/537.36",Macintosh,Chrome,111.0.0.0,OS X,10_15_7,null,null,fixation,,,,
,,,,,image-button-response,13,263753,0.0-4.0-1.4,19,1,2023-03-15 11:50:13,95c447948bfde634df5be7bb21c2f1af,"Mozilla/5.0 (Macintosh; Intel Mac OS X 10_15_7) AppleWebKit/537.36 (KHTML, like Gecko) Chrome/111.0.0.0 Safari/537.36",Macintosh,Chrome,111.0.0.0,OS X,10_15_7,23374,0,response_1,Andrena flavipes,FALSE,,
,,,,,html-keyboard-response,14,264265,0.0-4.0-0.5,19,1,2023-03-15 11:50:13,95c447948bfde634df5be7bb21c2f1af,"Mozilla/5.0 (Macintosh; Intel Mac OS X 10_15_7) AppleWebKit/537.36 (KHTML, like Gecko) Chrome/111.0.0.0 Safari/537.36",Macintosh,Chrome,111.0.0.0,OS X,10_15_7,null,null,fixation,,,,
,,,,,image-button-response,15,275235,0.0-4.0-1.5,19,1,2023-03-15 11:50:13,95c447948bfde634df5be7bb21c2f1af,"Mozilla/5.0 (Macintosh; Intel Mac OS X 10_15_7) AppleWebKit/537.36 (KHTML, like Gecko) Chrome/111.0.0.0 Safari/537.36",Macintosh,Chrome,111.0.0.0,OS X,10_15_7,10968,4,response_1,Bombus pratorum,FALSE,,
,,,,,html-button-response,16,294003,0.0-5.0,19,1,2023-03-15 11:50:13,95c447948bfde634df5be7bb21c2f1af,"Mozilla/5.0 (Macintosh; Intel Mac OS X 10_15_7) AppleWebKit/537.36 (KHTML, like Gecko) Chrome/111.0.0.0 Safari/537.36",Macintosh,Chrome,111.0.0.0,OS X,10_15_7,18765,0,,,,,
,,,,,html-keyboard-response,17,294755,0.0-6.0-0.0,19,1,2023-03-15 11:50:13,95c447948bfde634df5be7bb21c2f1af,"Mozilla/5.0 (Macintosh; Intel Mac OS X 10_15_7) AppleWebKit/537.36 (KHTML, like Gecko) Chrome/111.0.0.0 Safari/537.36",Macintosh,Chrome,111.0.0.0,OS X,10_15_7,null,null,fixation,,,,
,,,,,image-button-response,18,304668,0.0-6.0-1.0,19,1,2023-03-15 11:50:13,95c447948bfde634df5be7bb21c2f1af,"Mozilla/5.0 (Macintosh; Intel Mac OS X 10_15_7) AppleWebKit/537.36 (KHTML, like Gecko) Chrome/111.0.0.0 Safari/537.36",Macintosh,Chrome,111.0.0.0,OS X,10_15_7,9911,4,response_pred,Bombus hortorum,FALSE,Bombus pratorum,
,,,,,html-keyboard-response,19,305432,0.0-6.0-0.1,19,1,2023-03-15 11:50:13,95c447948bfde634df5be7bb21c2f1af,"Mozilla/5.0 (Macintosh; Intel Mac OS X 10_15_7) AppleWebKit/537.36 (KHTML, like Gecko) Chrome/111.0.0.0 Safari/537.36",Macintosh,Chrome,111.0.0.0,OS X,10_15_7,null,null,fixation,,,,
,,,,,image-button-response,20,316953,0.0-6.0-1.1,19,1,2023-03-15 11:50:13,95c447948bfde634df5be7bb21c2f1af,"Mozilla/5.0 (Macintosh; Intel Mac OS X 10_15_7) AppleWebKit/537.36 (KHTML, like Gecko) Chrome/111.0.0.0 Safari/537.36",Macintosh,Chrome,111.0.0.0,OS X,10_15_7,11519,3,response_pred,Bombus lucorum,FALSE,Bombus hortorum,
,,,,,html-keyboard-response,21,317208,0.0-6.0-0.2,19,1,2023-03-15 11:50:13,95c447948bfde634df5be7bb21c2f1af,"Mozilla/5.0 (Macintosh; Intel Mac OS X 10_15_7) AppleWebKit/537.36 (KHTML, like Gecko) Chrome/111.0.0.0 Safari/537.36",Macintosh,Chrome,111.0.0.0,OS X,10_15_7,null,null,fixation,,,,
,,,,,image-button-response,22,322404,0.0-6.0-1.2,19,1,2023-03-15 11:50:13,95c447948bfde634df5be7bb21c2f1af,"Mozilla/5.0 (Macintosh; Intel Mac OS X 10_15_7) AppleWebKit/537.36 (KHTML, like Gecko) Chrome/111.0.0.0 Safari/537.36",Macintosh,Chrome,111.0.0.0,OS X,10_15_7,5192,2,response_pred,Andrena fulva,TRUE,Andrena fulva,
,,,,,html-keyboard-response,23,322657,0.0-6.0-0.3,19,1,2023-03-15 11:50:13,95c447948bfde634df5be7bb21c2f1af,"Mozilla/5.0 (Macintosh; Intel Mac OS X 10_15_7) AppleWebKit/537.36 (KHTML, like Gecko) Chrome/111.0.0.0 Safari/537.36",Macintosh,Chrome,111.0.0.0,OS X,10_15_7,null,null,fixation,,,,
