success,timeout,failed_images,failed_audio,failed_video,trial_type,trial_index,time_elapsed,internal_node_id,run_id,condition,recorded_at,source_code_version,user_agent,device,browser,browser_version,platform,platform_version,rt,response,task,correct_response,correct,pred_class
TRUE,FALSE,[],[],[],preload,0,1371,0.0-0.0,10,1,2023-03-14 19:08:02,95c447948bfde634df5be7bb21c2f1af,Mozilla/5.0 (Macintosh; Intel Mac OS X 10.15; rv:109.0) Gecko/20100101 Firefox/110.0,Macintosh,Firefox,110,OS X,10.15,,,,,,
,,,,,html-button-response,1,9656,0.0-1.0,10,1,2023-03-14 19:08:02,95c447948bfde634df5be7bb21c2f1af,Mozilla/5.0 (Macintosh; Intel Mac OS X 10.15; rv:109.0) Gecko/20100101 Firefox/110.0,Macintosh,Firefox,110,OS X,10.15,8285,0,,,,
,,,,,html-button-response,2,63312,0.0-2.0,10,1,2023-03-14 19:08:02,95c447948bfde634df5be7bb21c2f1af,Mozilla/5.0 (Macintosh; Intel Mac OS X 10.15; rv:109.0) Gecko/20100101 Firefox/110.0,Macintosh,Firefox,110,OS X,10.15,53652,0,,,,
,,,,,html-button-response,3,162189,0.0-3.0,10,1,2023-03-14 19:08:02,95c447948bfde634df5be7bb21c2f1af,Mozilla/5.0 (Macintosh; Intel Mac OS X 10.15; rv:109.0) Gecko/20100101 Firefox/110.0,Macintosh,Firefox,110,OS X,10.15,98878,0,,,,
,,,,,html-keyboard-response,4,163949,0.0-4.0-0.0,10,1,2023-03-14 19:08:02,95c447948bfde634df5be7bb21c2f1af,Mozilla/5.0 (Macintosh; Intel Mac OS X 10.15; rv:109.0) Gecko/20100101 Firefox/110.0,Macintosh,Firefox,110,OS X,10.15,null,null,fixation,,,
,,,,,image-button-response,5,266054,0.0-4.0-1.0,10,1,2023-03-14 19:08:02,95c447948bfde634df5be7bb21c2f1af,Mozilla/5.0 (Macintosh; Intel Mac OS X 10.15; rv:109.0) Gecko/20100101 Firefox/110.0,Macintosh,Firefox,110,OS X,10.15,102066,1,response_1,Andrena flavipes,TRUE,
,,,,,html-keyboard-response,6,266562,0.0-4.0-0.1,10,1,2023-03-14 19:08:02,95c447948bfde634df5be7bb21c2f1af,Mozilla/5.0 (Macintosh; Intel Mac OS X 10.15; rv:109.0) Gecko/20100101 Firefox/110.0,Macintosh,Firefox,110,OS X,10.15,null,null,fixation,,,
,,,,,image-button-response,7,293653,0.0-4.0-1.1,10,1,2023-03-14 19:08:02,95c447948bfde634df5be7bb21c2f1af,Mozilla/5.0 (Macintosh; Intel Mac OS X 10.15; rv:109.0) Gecko/20100101 Firefox/110.0,Macintosh,Firefox,110,OS X,10.15,27079,3,response_1,Bombus hortorum,TRUE,
,,,,,html-keyboard-response,8,294410,0.0-4.0-0.2,10,1,2023-03-14 19:08:02,95c447948bfde634df5be7bb21c2f1af,Mozilla/5.0 (Macintosh; Intel Mac OS X 10.15; rv:109.0) Gecko/20100101 Firefox/110.0,Macintosh,Firefox,110,OS X,10.15,null,null,fixation,,,
,,,,,image-button-response,9,320054,0.0-4.0-1.2,10,1,2023-03-14 19:08:02,95c447948bfde634df5be7bb21c2f1af,Mozilla/5.0 (Macintosh; Intel Mac OS X 10.15; rv:109.0) Gecko/20100101 Firefox/110.0,Macintosh,Firefox,110,OS X,10.15,25563,4,response_1,Bombus lucorum,TRUE,
,,,,,html-keyboard-response,10,320559,0.0-4.0-0.3,10,1,2023-03-14 19:08:02,95c447948bfde634df5be7bb21c2f1af,Mozilla/5.0 (Macintosh; Intel Mac OS X 10.15; rv:109.0) Gecko/20100101 Firefox/110.0,Macintosh,Firefox,110,OS X,10.15,null,null,fixation,,,
,,,,,image-button-response,11,375863,0.0-4.0-1.3,10,1,2023-03-14 19:08:02,95c447948bfde634df5be7bb21c2f1af,Mozilla/5.0 (Macintosh; Intel Mac OS X 10.15; rv:109.0) Gecko/20100101 Firefox/110.0,Macintosh,Firefox,110,OS X,10.15,55298,3,response_1,Bombus lucorum,FALSE,
,,,,,html-keyboard-response,12,376371,0.0-4.0-0.4,10,1,2023-03-14 19:08:02,95c447948bfde634df5be7bb21c2f1af,Mozilla/5.0 (Macintosh; Intel Mac OS X 10.15; rv:109.0) Gecko/20100101 Firefox/110.0,Macintosh,Firefox,110,OS X,10.15,null,null,fixation,,,
,,,,,image-button-response,13,386208,0.0-4.0-1.4,10,1,2023-03-14 19:08:02,95c447948bfde634df5be7bb21c2f1af,Mozilla/5.0 (Macintosh; Intel Mac OS X 10.15; rv:109.0) Gecko/20100101 Firefox/110.0,Macintosh,Firefox,110,OS X,10.15,9832,1,response_1,Andrena flavipes,TRUE,
,,,,,html-keyboard-response,14,386709,0.0-4.0-0.5,10,1,2023-03-14 19:08:02,95c447948bfde634df5be7bb21c2f1af,Mozilla/5.0 (Macintosh; Intel Mac OS X 10.15; rv:109.0) Gecko/20100101 Firefox/110.0,Macintosh,Firefox,110,OS X,10.15,null,null,fixation,,,
,,,,,image-button-response,15,407056,0.0-4.0-1.5,10,1,2023-03-14 19:08:02,95c447948bfde634df5be7bb21c2f1af,Mozilla/5.0 (Macintosh; Intel Mac OS X 10.15; rv:109.0) Gecko/20100101 Firefox/110.0,Macintosh,Firefox,110,OS X,10.15,20339,5,response_1,Bombus pratorum,TRUE,
,,,,,html-button-response,16,410369,0.0-5.0,10,1,2023-03-14 19:08:02,95c447948bfde634df5be7bb21c2f1af,Mozilla/5.0 (Macintosh; Intel Mac OS X 10.15; rv:109.0) Gecko/20100101 Firefox/110.0,Macintosh,Firefox,110,OS X,10.15,3310,0,,,,
,,,,,html-keyboard-response,17,410624,0.0-6.0-0.0,10,1,2023-03-14 19:08:02,95c447948bfde634df5be7bb21c2f1af,Mozilla/5.0 (Macintosh; Intel Mac OS X 10.15; rv:109.0) Gecko/20100101 Firefox/110.0,Macintosh,Firefox,110,OS X,10.15,null,null,fixation,,,
,,,,,image-button-response,18,484599,0.0-6.0-1.0,10,1,2023-03-14 19:08:02,95c447948bfde634df5be7bb21c2f1af,Mozilla/5.0 (Macintosh; Intel Mac OS X 10.15; rv:109.0) Gecko/20100101 Firefox/110.0,Macintosh,Firefox,110,OS X,10.15,73969,3,response_pred,Bombus pratorum,FALSE,Bombus lucorum
,,,,,html-keyboard-response,19,485352,0.0-6.0-0.1,10,1,2023-03-14 19:08:02,95c447948bfde634df5be7bb21c2f1af,Mozilla/5.0 (Macintosh; Intel Mac OS X 10.15; rv:109.0) Gecko/20100101 Firefox/110.0,Macintosh,Firefox,110,OS X,10.15,null,null,fixation,,,
,,,,,image-button-response,20,494349,0.0-6.0-1.1,10,1,2023-03-14 19:08:02,95c447948bfde634df5be7bb21c2f1af,Mozilla/5.0 (Macintosh; Intel Mac OS X 10.15; rv:109.0) Gecko/20100101 Firefox/110.0,Macintosh,Firefox,110,OS X,10.15,8990,2,response_pred,Andrena fulva,TRUE,Andrena fulva
,,,,,html-keyboard-response,21,495105,0.0-6.0-0.2,10,1,2023-03-14 19:08:02,95c447948bfde634df5be7bb21c2f1af,Mozilla/5.0 (Macintosh; Intel Mac OS X 10.15; rv:109.0) Gecko/20100101 Firefox/110.0,Macintosh,Firefox,110,OS X,10.15,null,null,fixation,,,
,,,,,image-button-response,22,536312,0.0-6.0-1.2,10,1,2023-03-14 19:08:02,95c447948bfde634df5be7bb21c2f1af,Mozilla/5.0 (Macintosh; Intel Mac OS X 10.15; rv:109.0) Gecko/20100101 Firefox/110.0,Macintosh,Firefox,110,OS X,10.15,41198,3,response_pred,Bombus lucorum,FALSE,Bombus hortorum
,,,,,html-keyboard-response,23,537070,0.0-6.0-0.3,10,1,2023-03-14 19:08:02,95c447948bfde634df5be7bb21c2f1af,Mozilla/5.0 (Macintosh; Intel Mac OS X 10.15; rv:109.0) Gecko/20100101 Firefox/110.0,Macintosh,Firefox,110,OS X,10.15,null,null,fixation,,,
,,,,,image-button-response,24,543259,0.0-6.0-1.3,10,1,2023-03-14 19:08:02,95c447948bfde634df5be7bb21c2f1af,Mozilla/5.0 (Macintosh; Intel Mac OS X 10.15; rv:109.0) Gecko/20100101 Firefox/110.0,Macintosh,Firefox,110,OS X,10.15,6171,1,response_pred,Andrena flavipes,TRUE,Andrena flavipes
,,,,,html-keyboard-response,25,543514,0.0-6.0-0.4,10,1,2023-03-14 19:08:02,95c447948bfde634df5be7bb21c2f1af,Mozilla/5.0 (Macintosh; Intel Mac OS X 10.15; rv:109.0) Gecko/20100101 Firefox/110.0,Macintosh,Firefox,110,OS X,10.15,null,null,fixation,,,
,,,,,image-button-response,26,599990,0.0-6.0-1.4,10,1,2023-03-14 19:08:02,95c447948bfde634df5be7bb21c2f1af,Mozilla/5.0 (Macintosh; Intel Mac OS X 10.15; rv:109.0) Gecko/20100101 Firefox/110.0,Macintosh,Firefox,110,OS X,10.15,56465,3,response_pred,Bombus hortorum,TRUE,Bombus pratorum
,,,,,html-keyboard-response,27,600495,0.0-6.0-0.5,10,1,2023-03-14 19:08:02,95c447948bfde634df5be7bb21c2f1af,Mozilla/5.0 (Macintosh; Intel Mac OS X 10.15; rv:109.0) Gecko/20100101 Firefox/110.0,Macintosh,Firefox,110,OS X,10.15,null,null,fixation,,,
,,,,,image-button-response,28,626434,0.0-6.0-1.5,10,1,2023-03-14 19:08:02,95c447948bfde634df5be7bb21c2f1af,Mozilla/5.0 (Macintosh; Intel Mac OS X 10.15; rv:109.0) Gecko/20100101 Firefox/110.0,Macintosh,Firefox,110,OS X,10.15,25932,5,response_pred,Andrena bicolor,FALSE,Andrena bicolor
,,,,,html-button-response,29,628086,0.0-7.0,10,1,2023-03-14 19:08:02,95c447948bfde634df5be7bb21c2f1af,Mozilla/5.0 (Macintosh; Intel Mac OS X 10.15; rv:109.0) Gecko/20100101 Firefox/110.0,Macintosh,Firefox,110,OS X,10.15,1649,0,,,,
,,,,,html-keyboard-response,30,628344,0.0-8.0-0.0,10,1,2023-03-14 19:08:02,95c447948bfde634df5be7bb21c2f1af,Mozilla/5.0 (Macintosh; Intel Mac OS X 10.15; rv:109.0) Gecko/20100101 Firefox/110.0,Macintosh,Firefox,110,OS X,10.15,null,null,fixation,,,
,,,,,image-button-response,31,642593,0.0-8.0-1.0,10,1,2023-03-14 19:08:02,95c447948bfde634df5be7bb21c2f1af,Mozilla/5.0 (Macintosh; Intel Mac OS X 10.15; rv:109.0) Gecko/20100101 Firefox/110.0,Macintosh,Firefox,110,OS X,10.15,14238,2,response_2,Andrena fulva,TRUE,
,,,,,html-keyboard-response,32,643350,0.0-8.0-0.1,10,1,2023-03-14 19:08:02,95c447948bfde634df5be7bb21c2f1af,Mozilla/5.0 (Macintosh; Intel Mac OS X 10.15; rv:109.0) Gecko/20100101 Firefox/110.0,Macintosh,Firefox,110,OS X,10.15,null,null,fixation,,,
,,,,,image-button-response,33,659013,0.0-8.0-1.1,10,1,2023-03-14 19:08:02,95c447948bfde634df5be7bb21c2f1af,Mozilla/5.0 (Macintosh; Intel Mac OS X 10.15; rv:109.0) Gecko/20100101 Firefox/110.0,Macintosh,Firefox,110,OS X,10.15,15651,2,response_2,Andrena fulva,TRUE,
,,,,,html-keyboard-response,34,659517,0.0-8.0-0.2,10,1,2023-03-14 19:08:02,95c447948bfde634df5be7bb21c2f1af,Mozilla/5.0 (Macintosh; Intel Mac OS X 10.15; rv:109.0) Gecko/20100101 Firefox/110.0,Macintosh,Firefox,110,OS X,10.15,null,null,fixation,,,
,,,,,image-button-response,35,680707,0.0-8.0-1.2,10,1,2023-03-14 19:08:02,95c447948bfde634df5be7bb21c2f1af,Mozilla/5.0 (Macintosh; Intel Mac OS X 10.15; rv:109.0) Gecko/20100101 Firefox/110.0,Macintosh,Firefox,110,OS X,10.15,21182,5,response_2,Bombus pratorum,TRUE,
,,,,,html-keyboard-response,36,681466,0.0-8.0-0.3,10,1,2023-03-14 19:08:02,95c447948bfde634df5be7bb21c2f1af,Mozilla/5.0 (Macintosh; Intel Mac OS X 10.15; rv:109.0) Gecko/20100101 Firefox/110.0,Macintosh,Firefox,110,OS X,10.15,null,null,fixation,,,
,,,,,image-button-response,37,715189,0.0-8.0-1.3,10,1,2023-03-14 19:08:02,95c447948bfde634df5be7bb21c2f1af,Mozilla/5.0 (Macintosh; Intel Mac OS X 10.15; rv:109.0) Gecko/20100101 Firefox/110.0,Macintosh,Firefox,110,OS X,10.15,33717,0,response_2,Andrena bicolor,TRUE,
,,,,,html-keyboard-response,38,715697,0.0-8.0-0.4,10,1,2023-03-14 19:08:02,95c447948bfde634df5be7bb21c2f1af,Mozilla/5.0 (Macintosh; Intel Mac OS X 10.15; rv:109.0) Gecko/20100101 Firefox/110.0,Macintosh,Firefox,110,OS X,10.15,null,null,fixation,,,
,,,,,image-button-response,39,732841,0.0-8.0-1.4,10,1,2023-03-14 19:08:02,95c447948bfde634df5be7bb21c2f1af,Mozilla/5.0 (Macintosh; Intel Mac OS X 10.15; rv:109.0) Gecko/20100101 Firefox/110.0,Macintosh,Firefox,110,OS X,10.15,17136,4,response_2,Bombus hortorum,FALSE,
,,,,,html-keyboard-response,40,733349,0.0-8.0-0.5,10,1,2023-03-14 19:08:02,95c447948bfde634df5be7bb21c2f1af,Mozilla/5.0 (Macintosh; Intel Mac OS X 10.15; rv:109.0) Gecko/20100101 Firefox/110.0,Macintosh,Firefox,110,OS X,10.15,null,null,fixation,,,
,,,,,image-button-response,41,749009,0.0-8.0-1.5,10,1,2023-03-14 19:08:02,95c447948bfde634df5be7bb21c2f1af,Mozilla/5.0 (Macintosh; Intel Mac OS X 10.15; rv:109.0) Gecko/20100101 Firefox/110.0,Macintosh,Firefox,110,OS X,10.15,15655,0,response_2,Andrena bicolor,TRUE,
,,,,,html-button-response,42,752436,0.0-9.0,10,1,2023-03-14 19:08:02,95c447948bfde634df5be7bb21c2f1af,Mozilla/5.0 (Macintosh; Intel Mac OS X 10.15; rv:109.0) Gecko/20100101 Firefox/110.0,Macintosh,Firefox,110,OS X,10.15,3424,0,,,,
,,,,,html-button-response,43,753799,0.0-10.0,10,1,2023-03-14 19:08:02,95c447948bfde634df5be7bb21c2f1af,Mozilla/5.0 (Macintosh; Intel Mac OS X 10.15; rv:109.0) Gecko/20100101 Firefox/110.0,Macintosh,Firefox,110,OS X,10.15,1360,0,,,,
TRUE,FALSE,[],[],[],preload,0,1175,0.0-0.0,13,1,2023-03-14 20:25:51,95c447948bfde634df5be7bb21c2f1af,"Mozilla/5.0 (iPhone; CPU iPhone OS 15_5 like Mac OS X) AppleWebKit/605.1.15 (KHTML, like Gecko) Version/15.5 Mobile/15E148 Safari/604.1",iPhone,Safari,15.5,iOS,15_5,,,,,,
,,,,,html-button-response,1,10534,0.0-1.0,13,1,2023-03-14 20:25:51,95c447948bfde634df5be7bb21c2f1af,"Mozilla/5.0 (iPhone; CPU iPhone OS 15_5 like Mac OS X) AppleWebKit/605.1.15 (KHTML, like Gecko) Version/15.5 Mobile/15E148 Safari/604.1",iPhone,Safari,15.5,iOS,15_5,9350,0,,,,
,,,,,html-button-response,2,62053,0.0-2.0,13,1,2023-03-14 20:25:51,95c447948bfde634df5be7bb21c2f1af,"Mozilla/5.0 (iPhone; CPU iPhone OS 15_5 like Mac OS X) AppleWebKit/605.1.15 (KHTML, like Gecko) Version/15.5 Mobile/15E148 Safari/604.1",iPhone,Safari,15.5,iOS,15_5,51511,0,,,,
,,,,,html-button-response,3,151611,0.0-3.0,13,1,2023-03-14 20:25:51,95c447948bfde634df5be7bb21c2f1af,"Mozilla/5.0 (iPhone; CPU iPhone OS 15_5 like Mac OS X) AppleWebKit/605.1.15 (KHTML, like Gecko) Version/15.5 Mobile/15E148 Safari/604.1",iPhone,Safari,15.5,iOS,15_5,89542,0,,,,
,,,,,html-keyboard-response,4,153143,0.0-4.0-0.0,13,1,2023-03-14 20:25:51,95c447948bfde634df5be7bb21c2f1af,"Mozilla/5.0 (iPhone; CPU iPhone OS 15_5 like Mac OS X) AppleWebKit/605.1.15 (KHTML, like Gecko) Version/15.5 Mobile/15E148 Safari/604.1",iPhone,Safari,15.5,iOS,15_5,null,null,fixation,,,
,,,,,image-button-response,5,231076,0.0-4.0-1.0,13,1,2023-03-14 20:25:51,95c447948bfde634df5be7bb21c2f1af,"Mozilla/5.0 (iPhone; CPU iPhone OS 15_5 like Mac OS X) AppleWebKit/605.1.15 (KHTML, like Gecko) Version/15.5 Mobile/15E148 Safari/604.1",iPhone,Safari,15.5,iOS,15_5,77867,0,response_1,Andrena bicolor,TRUE,
,,,,,html-keyboard-response,6,231609,0.0-4.0-0.1,13,1,2023-03-14 20:25:51,95c447948bfde634df5be7bb21c2f1af,"Mozilla/5.0 (iPhone; CPU iPhone OS 15_5 like Mac OS X) AppleWebKit/605.1.15 (KHTML, like Gecko) Version/15.5 Mobile/15E148 Safari/604.1",iPhone,Safari,15.5,iOS,15_5,null,null,fixation,,,
,,,,,image-button-response,7,244115,0.0-4.0-1.1,13,1,2023-03-14 20:25:51,95c447948bfde634df5be7bb21c2f1af,"Mozilla/5.0 (iPhone; CPU iPhone OS 15_5 like Mac OS X) AppleWebKit/605.1.15 (KHTML, like Gecko) Version/15.5 Mobile/15E148 Safari/604.1",iPhone,Safari,15.5,iOS,15_5,12449,1,response_1,Andrena flavipes,TRUE,
,,,,,html-keyboard-response,8,244630,0.0-4.0-0.2,13,1,2023-03-14 20:25:51,95c447948bfde634df5be7bb21c2f1af,"Mozilla/5.0 (iPhone; CPU iPhone OS 15_5 like Mac OS X) AppleWebKit/605.1.15 (KHTML, like Gecko) Version/15.5 Mobile/15E148 Safari/604.1",iPhone,Safari,15.5,iOS,15_5,null,null,fixation,,,
,,,,,image-button-response,9,290345,0.0-4.0-1.2,13,1,2023-03-14 20:25:51,95c447948bfde634df5be7bb21c2f1af,"Mozilla/5.0 (iPhone; CPU iPhone OS 15_5 like Mac OS X) AppleWebKit/605.1.15 (KHTML, like Gecko) Version/15.5 Mobile/15E148 Safari/604.1",iPhone,Safari,15.5,iOS,15_5,45654,4,response_1,Bombus pratorum,FALSE,
,,,,,html-keyboard-response,10,291132,0.0-4.0-0.3,13,1,2023-03-14 20:25:51,95c447948bfde634df5be7bb21c2f1af,"Mozilla/5.0 (iPhone; CPU iPhone OS 15_5 like Mac OS X) AppleWebKit/605.1.15 (KHTML, like Gecko) Version/15.5 Mobile/15E148 Safari/604.1",iPhone,Safari,15.5,iOS,15_5,null,null,fixation,,,
,,,,,image-button-response,11,306235,0.0-4.0-1.3,13,1,2023-03-14 20:25:51,95c447948bfde634df5be7bb21c2f1af,"Mozilla/5.0 (iPhone; CPU iPhone OS 15_5 like Mac OS X) AppleWebKit/605.1.15 (KHTML, like Gecko) Version/15.5 Mobile/15E148 Safari/604.1",iPhone,Safari,15.5,iOS,15_5,15046,5,response_1,Andrena fulva,FALSE,
,,,,,html-keyboard-response,12,306742,0.0-4.0-0.4,13,1,2023-03-14 20:25:51,95c447948bfde634df5be7bb21c2f1af,"Mozilla/5.0 (iPhone; CPU iPhone OS 15_5 like Mac OS X) AppleWebKit/605.1.15 (KHTML, like Gecko) Version/15.5 Mobile/15E148 Safari/604.1",iPhone,Safari,15.5,iOS,15_5,null,null,fixation,,,
,,,,,image-button-response,13,320119,0.0-4.0-1.4,13,1,2023-03-14 20:25:51,95c447948bfde634df5be7bb21c2f1af,"Mozilla/5.0 (iPhone; CPU iPhone OS 15_5 like Mac OS X) AppleWebKit/605.1.15 (KHTML, like Gecko) Version/15.5 Mobile/15E148 Safari/604.1",iPhone,Safari,15.5,iOS,15_5,13323,2,response_1,Andrena fulva,TRUE,
,,,,,html-keyboard-response,14,320374,0.0-4.0-0.5,13,1,2023-03-14 20:25:51,95c447948bfde634df5be7bb21c2f1af,"Mozilla/5.0 (iPhone; CPU iPhone OS 15_5 like Mac OS X) AppleWebKit/605.1.15 (KHTML, like Gecko) Version/15.5 Mobile/15E148 Safari/604.1",iPhone,Safari,15.5,iOS,15_5,null,null,fixation,,,
,,,,,image-button-response,15,336524,0.0-4.0-1.5,13,1,2023-03-14 20:25:51,95c447948bfde634df5be7bb21c2f1af,"Mozilla/5.0 (iPhone; CPU iPhone OS 15_5 like Mac OS X) AppleWebKit/605.1.15 (KHTML, like Gecko) Version/15.5 Mobile/15E148 Safari/604.1",iPhone,Safari,15.5,iOS,15_5,16118,0,response_1,Andrena bicolor,TRUE,
,,,,,html-button-response,16,344882,0.0-5.0,13,1,2023-03-14 20:25:51,95c447948bfde634df5be7bb21c2f1af,"Mozilla/5.0 (iPhone; CPU iPhone OS 15_5 like Mac OS X) AppleWebKit/605.1.15 (KHTML, like Gecko) Version/15.5 Mobile/15E148 Safari/604.1",iPhone,Safari,15.5,iOS,15_5,8340,0,,,,
,,,,,html-keyboard-response,17,345141,0.0-6.0-0.0,13,1,2023-03-14 20:25:51,95c447948bfde634df5be7bb21c2f1af,"Mozilla/5.0 (iPhone; CPU iPhone OS 15_5 like Mac OS X) AppleWebKit/605.1.15 (KHTML, like Gecko) Version/15.5 Mobile/15E148 Safari/604.1",iPhone,Safari,15.5,iOS,15_5,null,null,fixation,,,
,,,,,image-button-response,18,360835,0.0-6.0-1.0,13,1,2023-03-14 20:25:51,95c447948bfde634df5be7bb21c2f1af,"Mozilla/5.0 (iPhone; CPU iPhone OS 15_5 like Mac OS X) AppleWebKit/605.1.15 (KHTML, like Gecko) Version/15.5 Mobile/15E148 Safari/604.1",iPhone,Safari,15.5,iOS,15_5,15636,1,response_pred,Andrena flavipes,TRUE,Andrena flavipes
,,,,,html-keyboard-response,19,361594,0.0-6.0-0.1,13,1,2023-03-14 20:25:51,95c447948bfde634df5be7bb21c2f1af,"Mozilla/5.0 (iPhone; CPU iPhone OS 15_5 like Mac OS X) AppleWebKit/605.1.15 (KHTML, like Gecko) Version/15.5 Mobile/15E148 Safari/604.1",iPhone,Safari,15.5,iOS,15_5,null,null,fixation,,,
,,,,,image-button-response,20,386611,0.0-6.0-1.1,13,1,2023-03-14 20:25:51,95c447948bfde634df5be7bb21c2f1af,"Mozilla/5.0 (iPhone; CPU iPhone OS 15_5 like Mac OS X) AppleWebKit/605.1.15 (KHTML, like Gecko) Version/15.5 Mobile/15E148 Safari/604.1",iPhone,Safari,15.5,iOS,15_5,24966,3,response_pred,Bombus lucorum,FALSE,Bombus hortorum
,,,,,html-keyboard-response,21,387374,0.0-6.0-0.2,13,1,2023-03-14 20:25:51,95c447948bfde634df5be7bb21c2f1af,"Mozilla/5.0 (iPhone; CPU iPhone OS 15_5 like Mac OS X) AppleWebKit/605.1.15 (KHTML, like Gecko) Version/15.5 Mobile/15E148 Safari/604.1",iPhone,Safari,15.5,iOS,15_5,null,null,fixation,,,
,,,,,image-button-response,22,401122,0.0-6.0-1.2,13,1,2023-03-14 20:25:51,95c447948bfde634df5be7bb21c2f1af,"Mozilla/5.0 (iPhone; CPU iPhone OS 15_5 like Mac OS X) AppleWebKit/605.1.15 (KHTML, like Gecko) Version/15.5 Mobile/15E148 Safari/604.1",iPhone,Safari,15.5,iOS,15_5,13723,5,response_pred,Bombus pratorum,TRUE,Bombus lucorum
,,,,,html-keyboard-response,23,401877,0.0-6.0-0.3,13,1,2023-03-14 20:25:51,95c447948bfde634df5be7bb21c2f1af,"Mozilla/5.0 (iPhone; CPU iPhone OS 15_5 like Mac OS X) AppleWebKit/605.1.15 (KHTML, like Gecko) Version/15.5 Mobile/15E148 Safari/604.1",iPhone,Safari,15.5,iOS,15_5,null,null,fixation,,,
,,,,,image-button-response,24,418913,0.0-6.0-1.3,13,1,2023-03-14 20:25:51,95c447948bfde634df5be7bb21c2f1af,"Mozilla/5.0 (iPhone; CPU iPhone OS 15_5 like Mac OS X) AppleWebKit/605.1.15 (KHTML, like Gecko) Version/15.5 Mobile/15E148 Safari/604.1",iPhone,Safari,15.5,iOS,15_5,16993,2,response_pred,Andrena bicolor,FALSE,Andrena bicolor
,,,,,html-keyboard-response,25,419167,0.0-6.0-0.4,13,1,2023-03-14 20:25:51,95c447948bfde634df5be7bb21c2f1af,"Mozilla/5.0 (iPhone; CPU iPhone OS 15_5 like Mac OS X) AppleWebKit/605.1.15 (KHTML, like Gecko) Version/15.5 Mobile/15E148 Safari/604.1",iPhone,Safari,15.5,iOS,15_5,null,null,fixation,,,
,,,,,image-button-response,26,437084,0.0-6.0-1.4,13,1,2023-03-14 20:25:51,95c447948bfde634df5be7bb21c2f1af,"Mozilla/5.0 (iPhone; CPU iPhone OS 15_5 like Mac OS X) AppleWebKit/605.1.15 (KHTML, like Gecko) Version/15.5 Mobile/15E148 Safari/604.1",iPhone,Safari,15.5,iOS,15_5,17863,4,response_pred,Bombus hortorum,FALSE,Bombus pratorum
,,,,,html-keyboard-response,27,437594,0.0-6.0-0.5,13,1,2023-03-14 20:25:51,95c447948bfde634df5be7bb21c2f1af,"Mozilla/5.0 (iPhone; CPU iPhone OS 15_5 like Mac OS X) AppleWebKit/605.1.15 (KHTML, like Gecko) Version/15.5 Mobile/15E148 Safari/604.1",iPhone,Safari,15.5,iOS,15_5,null,null,fixation,,,
,,,,,image-button-response,28,451641,0.0-6.0-1.5,13,1,2023-03-14 20:25:51,95c447948bfde634df5be7bb21c2f1af,"Mozilla/5.0 (iPhone; CPU iPhone OS 15_5 like Mac OS X) AppleWebKit/605.1.15 (KHTML, like Gecko) Version/15.5 Mobile/15E148 Safari/604.1",iPhone,Safari,15.5,iOS,15_5,14008,0,response_pred,Andrena fulva,FALSE,Andrena fulva
,,,,,html-button-response,29,461843,0.0-7.0,13,1,2023-03-14 20:25:51,95c447948bfde634df5be7bb21c2f1af,"Mozilla/5.0 (iPhone; CPU iPhone OS 15_5 like Mac OS X) AppleWebKit/605.1.15 (KHTML, like Gecko) Version/15.5 Mobile/15E148 Safari/604.1",iPhone,Safari,15.5,iOS,15_5,10189,0,,,,
,,,,,html-keyboard-response,30,462606,0.0-8.0-0.0,13,1,2023-03-14 20:25:51,95c447948bfde634df5be7bb21c2f1af,"Mozilla/5.0 (iPhone; CPU iPhone OS 15_5 like Mac OS X) AppleWebKit/605.1.15 (KHTML, like Gecko) Version/15.5 Mobile/15E148 Safari/604.1",iPhone,Safari,15.5,iOS,15_5,null,null,fixation,,,
,,,,,image-button-response,31,479857,0.0-8.0-1.0,13,1,2023-03-14 20:25:51,95c447948bfde634df5be7bb21c2f1af,"Mozilla/5.0 (iPhone; CPU iPhone OS 15_5 like Mac OS X) AppleWebKit/605.1.15 (KHTML, like Gecko) Version/15.5 Mobile/15E148 Safari/604.1",iPhone,Safari,15.5,iOS,15_5,17230,3,response_2,Bombus hortorum,TRUE,
,,,,,html-keyboard-response,32,480116,0.0-8.0-0.1,13,1,2023-03-14 20:25:51,95c447948bfde634df5be7bb21c2f1af,"Mozilla/5.0 (iPhone; CPU iPhone OS 15_5 like Mac OS X) AppleWebKit/605.1.15 (KHTML, like Gecko) Version/15.5 Mobile/15E148 Safari/604.1",iPhone,Safari,15.5,iOS,15_5,null,null,fixation,,,
,,,,,image-button-response,33,495874,0.0-8.0-1.1,13,1,2023-03-14 20:25:51,95c447948bfde634df5be7bb21c2f1af,"Mozilla/5.0 (iPhone; CPU iPhone OS 15_5 like Mac OS X) AppleWebKit/605.1.15 (KHTML, like Gecko) Version/15.5 Mobile/15E148 Safari/604.1",iPhone,Safari,15.5,iOS,15_5,15726,3,response_2,Bombus hortorum,TRUE,
,,,,,html-keyboard-response,34,496633,0.0-8.0-0.2,13,1,2023-03-14 20:25:51,95c447948bfde634df5be7bb21c2f1af,"Mozilla/5.0 (iPhone; CPU iPhone OS 15_5 like Mac OS X) AppleWebKit/605.1.15 (KHTML, like Gecko) Version/15.5 Mobile/15E148 Safari/604.1",iPhone,Safari,15.5,iOS,15_5,null,null,fixation,,,
,,,,,image-button-response,35,503364,0.0-8.0-1.2,13,1,2023-03-14 20:25:51,95c447948bfde634df5be7bb21c2f1af,"Mozilla/5.0 (iPhone; CPU iPhone OS 15_5 like Mac OS X) AppleWebKit/605.1.15 (KHTML, like Gecko) Version/15.5 Mobile/15E148 Safari/604.1",iPhone,Safari,15.5,iOS,15_5,6694,2,response_2,Bombus pratorum,FALSE,
,,,,,html-keyboard-response,36,503625,0.0-8.0-0.3,13,1,2023-03-14 20:25:51,95c447948bfde634df5be7bb21c2f1af,"Mozilla/5.0 (iPhone; CPU iPhone OS 15_5 like Mac OS X) AppleWebKit/605.1.15 (KHTML, like Gecko) Version/15.5 Mobile/15E148 Safari/604.1",iPhone,Safari,15.5,iOS,15_5,null,null,fixation,,,
,,,,,image-button-response,37,518561,0.0-8.0-1.3,13,1,2023-03-14 20:25:51,95c447948bfde634df5be7bb21c2f1af,"Mozilla/5.0 (iPhone; CPU iPhone OS 15_5 like Mac OS X) AppleWebKit/605.1.15 (KHTML, like Gecko) Version/15.5 Mobile/15E148 Safari/604.1",iPhone,Safari,15.5,iOS,15_5,14902,1,response_2,Andrena flavipes,TRUE,
,,,,,html-keyboard-response,38,519320,0.0-8.0-0.4,13,1,2023-03-14 20:25:51,95c447948bfde634df5be7bb21c2f1af,"Mozilla/5.0 (iPhone; CPU iPhone OS 15_5 like Mac OS X) AppleWebKit/605.1.15 (KHTML, like Gecko) Version/15.5 Mobile/15E148 Safari/604.1",iPhone,Safari,15.5,iOS,15_5,null,null,fixation,,,
,,,,,image-button-response,39,527567,0.0-8.0-1.4,13,1,2023-03-14 20:25:51,95c447948bfde634df5be7bb21c2f1af,"Mozilla/5.0 (iPhone; CPU iPhone OS 15_5 like Mac OS X) AppleWebKit/605.1.15 (KHTML, like Gecko) Version/15.5 Mobile/15E148 Safari/604.1",iPhone,Safari,15.5,iOS,15_5,8204,4,response_2,Bombus lucorum,TRUE,
,,,,,html-keyboard-response,40,528078,0.0-8.0-0.5,13,1,2023-03-14 20:25:51,95c447948bfde634df5be7bb21c2f1af,"Mozilla/5.0 (iPhone; CPU iPhone OS 15_5 like Mac OS X) AppleWebKit/605.1.15 (KHTML, like Gecko) Version/15.5 Mobile/15E148 Safari/604.1",iPhone,Safari,15.5,iOS,15_5,null,null,fixation,,,
,,,,,image-button-response,41,538149,0.0-8.0-1.5,13,1,2023-03-14 20:25:51,95c447948bfde634df5be7bb21c2f1af,"Mozilla/5.0 (iPhone; CPU iPhone OS 15_5 like Mac OS X) AppleWebKit/605.1.15 (KHTML, like Gecko) Version/15.5 Mobile/15E148 Safari/604.1",iPhone,Safari,15.5,iOS,15_5,10032,5,response_2,Bombus lucorum,FALSE,
,,,,,html-button-response,42,542258,0.0-9.0,13,1,2023-03-14 20:25:51,95c447948bfde634df5be7bb21c2f1af,"Mozilla/5.0 (iPhone; CPU iPhone OS 15_5 like Mac OS X) AppleWebKit/605.1.15 (KHTML, like Gecko) Version/15.5 Mobile/15E148 Safari/604.1",iPhone,Safari,15.5,iOS,15_5,4097,0,,,,
,,,,,html-button-response,43,546054,0.0-10.0,13,1,2023-03-14 20:25:51,95c447948bfde634df5be7bb21c2f1af,"Mozilla/5.0 (iPhone; CPU iPhone OS 15_5 like Mac OS X) AppleWebKit/605.1.15 (KHTML, like Gecko) Version/15.5 Mobile/15E148 Safari/604.1",iPhone,Safari,15.5,iOS,15_5,3779,0,,,,
TRUE,FALSE,[],[],[],preload,0,797,0.0-0.0,4,1,2023-03-14 15:35:13,95c447948bfde634df5be7bb21c2f1af,Mozilla/5.0 (Windows NT 10.0; Win64; x64; rv:109.0) Gecko/20100101 Firefox/110.0,,Firefox,110,Windows,10,,,,,,
,,,,,html-button-response,1,2174,0.0-1.0,4,1,2023-03-14 15:35:13,95c447948bfde634df5be7bb21c2f1af,Mozilla/5.0 (Windows NT 10.0; Win64; x64; rv:109.0) Gecko/20100101 Firefox/110.0,,Firefox,110,Windows,10,1376,0,,,,
,,,,,html-button-response,2,35254,0.0-2.0,4,1,2023-03-14 15:35:13,95c447948bfde634df5be7bb21c2f1af,Mozilla/5.0 (Windows NT 10.0; Win64; x64; rv:109.0) Gecko/20100101 Firefox/110.0,,Firefox,110,Windows,10,33076,0,,,,
,,,,,html-button-response,3,93210,0.0-3.0,4,1,2023-03-14 15:35:13,95c447948bfde634df5be7bb21c2f1af,Mozilla/5.0 (Windows NT 10.0; Win64; x64; rv:109.0) Gecko/20100101 Firefox/110.0,,Firefox,110,Windows,10,57952,0,,,,
,,,,,html-keyboard-response,4,94742,0.0-4.0-0.0,4,1,2023-03-14 15:35:13,95c447948bfde634df5be7bb21c2f1af,Mozilla/5.0 (Windows NT 10.0; Win64; x64; rv:109.0) Gecko/20100101 Firefox/110.0,,Firefox,110,Windows,10,null,null,fixation,,,
,,,,,image-button-response,5,119033,0.0-4.0-1.0,4,1,2023-03-14 15:35:13,95c447948bfde634df5be7bb21c2f1af,Mozilla/5.0 (Windows NT 10.0; Win64; x64; rv:109.0) Gecko/20100101 Firefox/110.0,,Firefox,110,Windows,10,24280,3,response_1,Bombus hortorum,TRUE,
,,,,,html-keyboard-response,6,119551,0.0-4.0-0.1,4,1,2023-03-14 15:35:13,95c447948bfde634df5be7bb21c2f1af,Mozilla/5.0 (Windows NT 10.0; Win64; x64; rv:109.0) Gecko/20100101 Firefox/110.0,,Firefox,110,Windows,10,null,null,fixation,,,
,,,,,image-button-response,7,142944,0.0-4.0-1.1,4,1,2023-03-14 15:35:13,95c447948bfde634df5be7bb21c2f1af,Mozilla/5.0 (Windows NT 10.0; Win64; x64; rv:109.0) Gecko/20100101 Firefox/110.0,,Firefox,110,Windows,10,23381,5,response_1,Andrena fulva,FALSE,
,,,,,html-keyboard-response,8,143452,0.0-4.0-0.2,4,1,2023-03-14 15:35:13,95c447948bfde634df5be7bb21c2f1af,Mozilla/5.0 (Windows NT 10.0; Win64; x64; rv:109.0) Gecko/20100101 Firefox/110.0,,Firefox,110,Windows,10,null,null,fixation,,,
,,,,,image-button-response,9,152660,0.0-4.0-1.2,4,1,2023-03-14 15:35:13,95c447948bfde634df5be7bb21c2f1af,Mozilla/5.0 (Windows NT 10.0; Win64; x64; rv:109.0) Gecko/20100101 Firefox/110.0,,Firefox,110,Windows,10,9198,1,response_1,Andrena flavipes,TRUE,
,,,,,html-keyboard-response,10,153171,0.0-4.0-0.3,4,1,2023-03-14 15:35:13,95c447948bfde634df5be7bb21c2f1af,Mozilla/5.0 (Windows NT 10.0; Win64; x64; rv:109.0) Gecko/20100101 Firefox/110.0,,Firefox,110,Windows,10,null,null,fixation,,,
,,,,,image-button-response,11,166296,0.0-4.0-1.3,4,1,2023-03-14 15:35:13,95c447948bfde634df5be7bb21c2f1af,Mozilla/5.0 (Windows NT 10.0; Win64; x64; rv:109.0) Gecko/20100101 Firefox/110.0,,Firefox,110,Windows,10,13113,5,response_1,Bombus lucorum,FALSE,
,,,,,html-keyboard-response,12,166800,0.0-4.0-0.4,4,1,2023-03-14 15:35:13,95c447948bfde634df5be7bb21c2f1af,Mozilla/5.0 (Windows NT 10.0; Win64; x64; rv:109.0) Gecko/20100101 Firefox/110.0,,Firefox,110,Windows,10,null,null,fixation,,,
,,,,,image-button-response,13,198769,0.0-4.0-1.4,4,1,2023-03-14 15:35:13,95c447948bfde634df5be7bb21c2f1af,Mozilla/5.0 (Windows NT 10.0; Win64; x64; rv:109.0) Gecko/20100101 Firefox/110.0,,Firefox,110,Windows,10,31949,4,response_1,Bombus lucorum,TRUE,
,,,,,html-keyboard-response,14,199272,0.0-4.0-0.5,4,1,2023-03-14 15:35:13,95c447948bfde634df5be7bb21c2f1af,Mozilla/5.0 (Windows NT 10.0; Win64; x64; rv:109.0) Gecko/20100101 Firefox/110.0,,Firefox,110,Windows,10,null,null,fixation,,,
,,,,,image-button-response,15,215781,0.0-4.0-1.5,4,1,2023-03-14 15:35:13,95c447948bfde634df5be7bb21c2f1af,Mozilla/5.0 (Windows NT 10.0; Win64; x64; rv:109.0) Gecko/20100101 Firefox/110.0,,Firefox,110,Windows,10,16497,1,response_1,Andrena bicolor,FALSE,
,,,,,html-button-response,16,222980,0.0-5.0,4,1,2023-03-14 15:35:13,95c447948bfde634df5be7bb21c2f1af,Mozilla/5.0 (Windows NT 10.0; Win64; x64; rv:109.0) Gecko/20100101 Firefox/110.0,,Firefox,110,Windows,10,7197,0,,,,
,,,,,html-keyboard-response,17,223494,0.0-6.0-0.0,4,1,2023-03-14 15:35:13,95c447948bfde634df5be7bb21c2f1af,Mozilla/5.0 (Windows NT 10.0; Win64; x64; rv:109.0) Gecko/20100101 Firefox/110.0,,Firefox,110,Windows,10,null,null,fixation,,,
,,,,,image-button-response,18,240657,0.0-6.0-1.0,4,1,2023-03-14 15:35:13,95c447948bfde634df5be7bb21c2f1af,Mozilla/5.0 (Windows NT 10.0; Win64; x64; rv:109.0) Gecko/20100101 Firefox/110.0,,Firefox,110,Windows,10,17159,2,response_pred,Andrena fulva,TRUE,Andrena fulva
,,,,,html-keyboard-response,19,240911,0.0-6.0-0.1,4,1,2023-03-14 15:35:13,95c447948bfde634df5be7bb21c2f1af,Mozilla/5.0 (Windows NT 10.0; Win64; x64; rv:109.0) Gecko/20100101 Firefox/110.0,,Firefox,110,Windows,10,null,null,fixation,,,
,,,,,image-button-response,20,251481,0.0-6.0-1.1,4,1,2023-03-14 15:35:13,95c447948bfde634df5be7bb21c2f1af,Mozilla/5.0 (Windows NT 10.0; Win64; x64; rv:109.0) Gecko/20100101 Firefox/110.0,,Firefox,110,Windows,10,10555,1,response_pred,Andrena flavipes,TRUE,Andrena flavipes
,,,,,html-keyboard-response,21,252240,0.0-6.0-0.2,4,1,2023-03-14 15:35:13,95c447948bfde634df5be7bb21c2f1af,Mozilla/5.0 (Windows NT 10.0; Win64; x64; rv:109.0) Gecko/20100101 Firefox/110.0,,Firefox,110,Windows,10,null,null,fixation,,,
,,,,,image-button-response,22,263917,0.0-6.0-1.2,4,1,2023-03-14 15:35:13,95c447948bfde634df5be7bb21c2f1af,Mozilla/5.0 (Windows NT 10.0; Win64; x64; rv:109.0) Gecko/20100101 Firefox/110.0,,Firefox,110,Windows,10,11669,3,response_pred,Bombus hortorum,TRUE,Bombus pratorum
,,,,,html-keyboard-response,23,264678,0.0-6.0-0.3,4,1,2023-03-14 15:35:13,95c447948bfde634df5be7bb21c2f1af,Mozilla/5.0 (Windows NT 10.0; Win64; x64; rv:109.0) Gecko/20100101 Firefox/110.0,,Firefox,110,Windows,10,null,null,fixation,,,
,,,,,image-button-response,24,272154,0.0-6.0-1.3,4,1,2023-03-14 15:35:13,95c447948bfde634df5be7bb21c2f1af,Mozilla/5.0 (Windows NT 10.0; Win64; x64; rv:109.0) Gecko/20100101 Firefox/110.0,,Firefox,110,Windows,10,7470,3,response_pred,Bombus lucorum,FALSE,Bombus hortorum
,,,,,html-keyboard-response,25,272662,0.0-6.0-0.4,4,1,2023-03-14 15:35:13,95c447948bfde634df5be7bb21c2f1af,Mozilla/5.0 (Windows NT 10.0; Win64; x64; rv:109.0) Gecko/20100101 Firefox/110.0,,Firefox,110,Windows,10,null,null,fixation,,,
,,,,,image-button-response,26,285029,0.0-6.0-1.4,4,1,2023-03-14 15:35:13,95c447948bfde634df5be7bb21c2f1af,Mozilla/5.0 (Windows NT 10.0; Win64; x64; rv:109.0) Gecko/20100101 Firefox/110.0,,Firefox,110,Windows,10,12362,5,response_pred,Bombus pratorum,TRUE,Bombus lucorum
,,,,,html-keyboard-response,27,285794,0.0-6.0-0.5,4,1,2023-03-14 15:35:13,95c447948bfde634df5be7bb21c2f1af,Mozilla/5.0 (Windows NT 10.0; Win64; x64; rv:109.0) Gecko/20100101 Firefox/110.0,,Firefox,110,Windows,10,null,null,fixation,,,
,,,,,image-button-response,28,293256,0.0-6.0-1.5,4,1,2023-03-14 15:35:13,95c447948bfde634df5be7bb21c2f1af,Mozilla/5.0 (Windows NT 10.0; Win64; x64; rv:109.0) Gecko/20100101 Firefox/110.0,,Firefox,110,Windows,10,7458,0,response_pred,Andrena bicolor,TRUE,Andrena bicolor
,,,,,html-button-response,29,298426,0.0-7.0,4,1,2023-03-14 15:35:13,95c447948bfde634df5be7bb21c2f1af,Mozilla/5.0 (Windows NT 10.0; Win64; x64; rv:109.0) Gecko/20100101 Firefox/110.0,,Firefox,110,Windows,10,5169,0,,,,
,,,,,html-keyboard-response,30,299193,0.0-8.0-0.0,4,1,2023-03-14 15:35:13,95c447948bfde634df5be7bb21c2f1af,Mozilla/5.0 (Windows NT 10.0; Win64; x64; rv:109.0) Gecko/20100101 Firefox/110.0,,Firefox,110,Windows,10,null,null,fixation,,,
,,,,,image-button-response,31,326555,0.0-8.0-1.0,4,1,2023-03-14 15:35:13,95c447948bfde634df5be7bb21c2f1af,Mozilla/5.0 (Windows NT 10.0; Win64; x64; rv:109.0) Gecko/20100101 Firefox/110.0,,Firefox,110,Windows,10,27360,1,response_2,Andrena bicolor,FALSE,
,,,,,html-keyboard-response,32,326810,0.0-8.0-0.1,4,1,2023-03-14 15:35:13,95c447948bfde634df5be7bb21c2f1af,Mozilla/5.0 (Windows NT 10.0; Win64; x64; rv:109.0) Gecko/20100101 Firefox/110.0,,Firefox,110,Windows,10,null,null,fixation,,,
,,,,,image-button-response,33,335834,0.0-8.0-1.1,4,1,2023-03-14 15:35:13,95c447948bfde634df5be7bb21c2f1af,Mozilla/5.0 (Windows NT 10.0; Win64; x64; rv:109.0) Gecko/20100101 Firefox/110.0,,Firefox,110,Windows,10,9018,2,response_2,Andrena fulva,TRUE,
,,,,,html-keyboard-response,34,336340,0.0-8.0-0.2,4,1,2023-03-14 15:35:13,95c447948bfde634df5be7bb21c2f1af,Mozilla/5.0 (Windows NT 10.0; Win64; x64; rv:109.0) Gecko/20100101 Firefox/110.0,,Firefox,110,Windows,10,null,null,fixation,,,
,,,,,image-button-response,35,346057,0.0-8.0-1.2,4,1,2023-03-14 15:35:13,95c447948bfde634df5be7bb21c2f1af,Mozilla/5.0 (Windows NT 10.0; Win64; x64; rv:109.0) Gecko/20100101 Firefox/110.0,,Firefox,110,Windows,10,9713,4,response_2,Bombus pratorum,FALSE,
,,,,,html-keyboard-response,36,346810,0.0-8.0-0.3,4,1,2023-03-14 15:35:13,95c447948bfde634df5be7bb21c2f1af,Mozilla/5.0 (Windows NT 10.0; Win64; x64; rv:109.0) Gecko/20100101 Firefox/110.0,,Firefox,110,Windows,10,null,null,fixation,,,
,,,,,image-button-response,37,362049,0.0-8.0-1.3,4,1,2023-03-14 15:35:13,95c447948bfde634df5be7bb21c2f1af,Mozilla/5.0 (Windows NT 10.0; Win64; x64; rv:109.0) Gecko/20100101 Firefox/110.0,,Firefox,110,Windows,10,15232,0,response_2,Andrena flavipes,FALSE,
,,,,,html-keyboard-response,38,362310,0.0-8.0-0.4,4,1,2023-03-14 15:35:13,95c447948bfde634df5be7bb21c2f1af,Mozilla/5.0 (Windows NT 10.0; Win64; x64; rv:109.0) Gecko/20100101 Firefox/110.0,,Firefox,110,Windows,10,null,null,fixation,,,
,,,,,image-button-response,39,374424,0.0-8.0-1.4,4,1,2023-03-14 15:35:13,95c447948bfde634df5be7bb21c2f1af,Mozilla/5.0 (Windows NT 10.0; Win64; x64; rv:109.0) Gecko/20100101 Firefox/110.0,,Firefox,110,Windows,10,12111,5,response_2,Bombus pratorum,TRUE,
,,,,,html-keyboard-response,40,374940,0.0-8.0-0.5,4,1,2023-03-14 15:35:13,95c447948bfde634df5be7bb21c2f1af,Mozilla/5.0 (Windows NT 10.0; Win64; x64; rv:109.0) Gecko/20100101 Firefox/110.0,,Firefox,110,Windows,10,null,null,fixation,,,
,,,,,image-button-response,41,379966,0.0-8.0-1.5,4,1,2023-03-14 15:35:13,95c447948bfde634df5be7bb21c2f1af,Mozilla/5.0 (Windows NT 10.0; Win64; x64; rv:109.0) Gecko/20100101 Firefox/110.0,,Firefox,110,Windows,10,5019,3,response_2,Bombus hortorum,TRUE,
,,,,,html-button-response,42,382526,0.0-9.0,4,1,2023-03-14 15:35:13,95c447948bfde634df5be7bb21c2f1af,Mozilla/5.0 (Windows NT 10.0; Win64; x64; rv:109.0) Gecko/20100101 Firefox/110.0,,Firefox,110,Windows,10,2558,0,,,,
,,,,,html-button-response,43,384102,0.0-10.0,4,1,2023-03-14 15:35:13,95c447948bfde634df5be7bb21c2f1af,Mozilla/5.0 (Windows NT 10.0; Win64; x64; rv:109.0) Gecko/20100101 Firefox/110.0,,Firefox,110,Windows,10,1575,0,,,,
TRUE,FALSE,[],[],[],preload,0,681,0.0-0.0,11,1,2023-03-14 19:48:30,95c447948bfde634df5be7bb21c2f1af,"Mozilla/5.0 (Windows NT 10.0; Win64; x64) AppleWebKit/537.36 (KHTML, like Gecko) Chrome/111.0.0.0 Safari/537.36",WebKit,Chrome,111.0.0.0,Windows,10,,,,,,
,,,,,html-button-response,1,4350,0.0-1.0,11,1,2023-03-14 19:48:30,95c447948bfde634df5be7bb21c2f1af,"Mozilla/5.0 (Windows NT 10.0; Win64; x64) AppleWebKit/537.36 (KHTML, like Gecko) Chrome/111.0.0.0 Safari/537.36",WebKit,Chrome,111.0.0.0,Windows,10,3667,0,,,,
,,,,,html-button-response,2,19608,0.0-2.0,11,1,2023-03-14 19:48:30,95c447948bfde634df5be7bb21c2f1af,"Mozilla/5.0 (Windows NT 10.0; Win64; x64) AppleWebKit/537.36 (KHTML, like Gecko) Chrome/111.0.0.0 Safari/537.36",WebKit,Chrome,111.0.0.0,Windows,10,15256,0,,,,
,,,,,html-button-response,3,89989,0.0-3.0,11,1,2023-03-14 19:48:30,95c447948bfde634df5be7bb21c2f1af,"Mozilla/5.0 (Windows NT 10.0; Win64; x64) AppleWebKit/537.36 (KHTML, like Gecko) Chrome/111.0.0.0 Safari/537.36",WebKit,Chrome,111.0.0.0,Windows,10,70380,0,,,,
,,,,,html-keyboard-response,4,91511,0.0-4.0-0.0,11,1,2023-03-14 19:48:30,95c447948bfde634df5be7bb21c2f1af,"Mozilla/5.0 (Windows NT 10.0; Win64; x64) AppleWebKit/537.36 (KHTML, like Gecko) Chrome/111.0.0.0 Safari/537.36",WebKit,Chrome,111.0.0.0,Windows,10,null,null,fixation,,,
,,,,,image-button-response,5,110076,0.0-4.0-1.0,11,1,2023-03-14 19:48:30,95c447948bfde634df5be7bb21c2f1af,"Mozilla/5.0 (Windows NT 10.0; Win64; x64) AppleWebKit/537.36 (KHTML, like Gecko) Chrome/111.0.0.0 Safari/537.36",WebKit,Chrome,111.0.0.0,Windows,10,18555,1,response_1,Andrena flavipes,TRUE,
,,,,,html-keyboard-response,6,110338,0.0-4.0-0.1,11,1,2023-03-14 19:48:30,95c447948bfde634df5be7bb21c2f1af,"Mozilla/5.0 (Windows NT 10.0; Win64; x64) AppleWebKit/537.36 (KHTML, like Gecko) Chrome/111.0.0.0 Safari/537.36",WebKit,Chrome,111.0.0.0,Windows,10,null,null,fixation,,,
,,,,,image-button-response,7,129664,0.0-4.0-1.1,11,1,2023-03-14 19:48:30,95c447948bfde634df5be7bb21c2f1af,"Mozilla/5.0 (Windows NT 10.0; Win64; x64) AppleWebKit/537.36 (KHTML, like Gecko) Chrome/111.0.0.0 Safari/537.36",WebKit,Chrome,111.0.0.0,Windows,10,19320,0,response_1,Andrena flavipes,FALSE,
,,,,,html-keyboard-response,8,129923,0.0-4.0-0.2,11,1,2023-03-14 19:48:30,95c447948bfde634df5be7bb21c2f1af,"Mozilla/5.0 (Windows NT 10.0; Win64; x64) AppleWebKit/537.36 (KHTML, like Gecko) Chrome/111.0.0.0 Safari/537.36",WebKit,Chrome,111.0.0.0,Windows,10,null,null,fixation,,,
,,,,,image-button-response,9,157300,0.0-4.0-1.2,11,1,2023-03-14 19:48:30,95c447948bfde634df5be7bb21c2f1af,"Mozilla/5.0 (Windows NT 10.0; Win64; x64) AppleWebKit/537.36 (KHTML, like Gecko) Chrome/111.0.0.0 Safari/537.36",WebKit,Chrome,111.0.0.0,Windows,10,27371,5,response_1,Bombus lucorum,FALSE,
,,,,,html-keyboard-response,10,157806,0.0-4.0-0.3,11,1,2023-03-14 19:48:30,95c447948bfde634df5be7bb21c2f1af,"Mozilla/5.0 (Windows NT 10.0; Win64; x64) AppleWebKit/537.36 (KHTML, like Gecko) Chrome/111.0.0.0 Safari/537.36",WebKit,Chrome,111.0.0.0,Windows,10,null,null,fixation,,,
,,,,,image-button-response,11,173970,0.0-4.0-1.3,11,1,2023-03-14 19:48:30,95c447948bfde634df5be7bb21c2f1af,"Mozilla/5.0 (Windows NT 10.0; Win64; x64) AppleWebKit/537.36 (KHTML, like Gecko) Chrome/111.0.0.0 Safari/537.36",WebKit,Chrome,111.0.0.0,Windows,10,16165,4,response_1,Bombus pratorum,FALSE,
,,,,,html-keyboard-response,12,174473,0.0-4.0-0.4,11,1,2023-03-14 19:48:30,95c447948bfde634df5be7bb21c2f1af,"Mozilla/5.0 (Windows NT 10.0; Win64; x64) AppleWebKit/537.36 (KHTML, like Gecko) Chrome/111.0.0.0 Safari/537.36",WebKit,Chrome,111.0.0.0,Windows,10,null,null,fixation,,,
,,,,,image-button-response,13,187033,0.0-4.0-1.4,11,1,2023-03-14 19:48:30,95c447948bfde634df5be7bb21c2f1af,"Mozilla/5.0 (Windows NT 10.0; Win64; x64) AppleWebKit/537.36 (KHTML, like Gecko) Chrome/111.0.0.0 Safari/537.36",WebKit,Chrome,111.0.0.0,Windows,10,12552,3,response_1,Bombus hortorum,TRUE,
,,,,,html-keyboard-response,14,187790,0.0-4.0-0.5,11,1,2023-03-14 19:48:30,95c447948bfde634df5be7bb21c2f1af,"Mozilla/5.0 (Windows NT 10.0; Win64; x64) AppleWebKit/537.36 (KHTML, like Gecko) Chrome/111.0.0.0 Safari/537.36",WebKit,Chrome,111.0.0.0,Windows,10,null,null,fixation,,,
,,,,,image-button-response,15,198832,0.0-4.0-1.5,11,1,2023-03-14 19:48:30,95c447948bfde634df5be7bb21c2f1af,"Mozilla/5.0 (Windows NT 10.0; Win64; x64) AppleWebKit/537.36 (KHTML, like Gecko) Chrome/111.0.0.0 Safari/537.36",WebKit,Chrome,111.0.0.0,Windows,10,11035,4,response_1,Bombus hortorum,FALSE,
,,,,,html-button-response,16,211224,0.0-5.0,11,1,2023-03-14 19:48:30,95c447948bfde634df5be7bb21c2f1af,"Mozilla/5.0 (Windows NT 10.0; Win64; x64) AppleWebKit/537.36 (KHTML, like Gecko) Chrome/111.0.0.0 Safari/537.36",WebKit,Chrome,111.0.0.0,Windows,10,12388,0,,,,
,,,,,html-keyboard-response,17,211482,0.0-6.0-0.0,11,1,2023-03-14 19:48:30,95c447948bfde634df5be7bb21c2f1af,"Mozilla/5.0 (Windows NT 10.0; Win64; x64) AppleWebKit/537.36 (KHTML, like Gecko) Chrome/111.0.0.0 Safari/537.36",WebKit,Chrome,111.0.0.0,Windows,10,null,null,fixation,,,
,,,,,image-button-response,18,218293,0.0-6.0-1.0,11,1,2023-03-14 19:48:30,95c447948bfde634df5be7bb21c2f1af,"Mozilla/5.0 (Windows NT 10.0; Win64; x64) AppleWebKit/537.36 (KHTML, like Gecko) Chrome/111.0.0.0 Safari/537.36",WebKit,Chrome,111.0.0.0,Windows,10,6804,1,response_pred,Andrena bicolor,FALSE,Andrena bicolor
,,,,,html-keyboard-response,19,218809,0.0-6.0-0.1,11,1,2023-03-14 19:48:30,95c447948bfde634df5be7bb21c2f1af,"Mozilla/5.0 (Windows NT 10.0; Win64; x64) AppleWebKit/537.36 (KHTML, like Gecko) Chrome/111.0.0.0 Safari/537.36",WebKit,Chrome,111.0.0.0,Windows,10,null,null,fixation,,,
,,,,,image-button-response,20,230718,0.0-6.0-1.1,11,1,2023-03-14 19:48:30,95c447948bfde634df5be7bb21c2f1af,"Mozilla/5.0 (Windows NT 10.0; Win64; x64) AppleWebKit/537.36 (KHTML, like Gecko) Chrome/111.0.0.0 Safari/537.36",WebKit,Chrome,111.0.0.0,Windows,10,11902,3,response_pred,Bombus lucorum,FALSE,Bombus hortorum
,,,,,html-keyboard-response,21,230987,0.0-6.0-0.2,11,1,2023-03-14 19:48:30,95c447948bfde634df5be7bb21c2f1af,"Mozilla/5.0 (Windows NT 10.0; Win64; x64) AppleWebKit/537.36 (KHTML, like Gecko) Chrome/111.0.0.0 Safari/537.36",WebKit,Chrome,111.0.0.0,Windows,10,null,null,fixation,,,
,,,,,image-button-response,22,239223,0.0-6.0-1.2,11,1,2023-03-14 19:48:30,95c447948bfde634df5be7bb21c2f1af,"Mozilla/5.0 (Windows NT 10.0; Win64; x64) AppleWebKit/537.36 (KHTML, like Gecko) Chrome/111.0.0.0 Safari/537.36",WebKit,Chrome,111.0.0.0,Windows,10,8229,5,response_pred,Bombus pratorum,TRUE,Bombus lucorum
,,,,,html-keyboard-response,23,239736,0.0-6.0-0.3,11,1,2023-03-14 19:48:30,95c447948bfde634df5be7bb21c2f1af,"Mozilla/5.0 (Windows NT 10.0; Win64; x64) AppleWebKit/537.36 (KHTML, like Gecko) Chrome/111.0.0.0 Safari/537.36",WebKit,Chrome,111.0.0.0,Windows,10,null,null,fixation,,,
,,,,,image-button-response,24,246003,0.0-6.0-1.3,11,1,2023-03-14 19:48:30,95c447948bfde634df5be7bb21c2f1af,"Mozilla/5.0 (Windows NT 10.0; Win64; x64) AppleWebKit/537.36 (KHTML, like Gecko) Chrome/111.0.0.0 Safari/537.36",WebKit,Chrome,111.0.0.0,Windows,10,6262,4,response_pred,Bombus hortorum,FALSE,Bombus pratorum
,,,,,html-keyboard-response,25,246757,0.0-6.0-0.4,11,1,2023-03-14 19:48:30,95c447948bfde634df5be7bb21c2f1af,"Mozilla/5.0 (Windows NT 10.0; Win64; x64) AppleWebKit/537.36 (KHTML, like Gecko) Chrome/111.0.0.0 Safari/537.36",WebKit,Chrome,111.0.0.0,Windows,10,null,null,fixation,,,
,,,,,image-button-response,26,253505,0.0-6.0-1.4,11,1,2023-03-14 19:48:30,95c447948bfde634df5be7bb21c2f1af,"Mozilla/5.0 (Windows NT 10.0; Win64; x64) AppleWebKit/537.36 (KHTML, like Gecko) Chrome/111.0.0.0 Safari/537.36",WebKit,Chrome,111.0.0.0,Windows,10,6741,2,response_pred,Andrena fulva,TRUE,Andrena fulva
,,,,,html-keyboard-response,27,253772,0.0-6.0-0.5,11,1,2023-03-14 19:48:30,95c447948bfde634df5be7bb21c2f1af,"Mozilla/5.0 (Windows NT 10.0; Win64; x64) AppleWebKit/537.36 (KHTML, like Gecko) Chrome/111.0.0.0 Safari/537.36",WebKit,Chrome,111.0.0.0,Windows,10,null,null,fixation,,,
,,,,,image-button-response,28,258550,0.0-6.0-1.5,11,1,2023-03-14 19:48:30,95c447948bfde634df5be7bb21c2f1af,"Mozilla/5.0 (Windows NT 10.0; Win64; x64) AppleWebKit/537.36 (KHTML, like Gecko) Chrome/111.0.0.0 Safari/537.36",WebKit,Chrome,111.0.0.0,Windows,10,4771,1,response_pred,Andrena flavipes,TRUE,Andrena flavipes
,,,,,html-button-response,29,265621,0.0-7.0,11,1,2023-03-14 19:48:30,95c447948bfde634df5be7bb21c2f1af,"Mozilla/5.0 (Windows NT 10.0; Win64; x64) AppleWebKit/537.36 (KHTML, like Gecko) Chrome/111.0.0.0 Safari/537.36",WebKit,Chrome,111.0.0.0,Windows,10,7067,0,,,,
,,,,,html-keyboard-response,30,266125,0.0-8.0-0.0,11,1,2023-03-14 19:48:30,95c447948bfde634df5be7bb21c2f1af,"Mozilla/5.0 (Windows NT 10.0; Win64; x64) AppleWebKit/537.36 (KHTML, like Gecko) Chrome/111.0.0.0 Safari/537.36",WebKit,Chrome,111.0.0.0,Windows,10,null,null,fixation,,,
,,,,,image-button-response,31,275088,0.0-8.0-1.0,11,1,2023-03-14 19:48:30,95c447948bfde634df5be7bb21c2f1af,"Mozilla/5.0 (Windows NT 10.0; Win64; x64) AppleWebKit/537.36 (KHTML, like Gecko) Chrome/111.0.0.0 Safari/537.36",WebKit,Chrome,111.0.0.0,Windows,10,8959,0,response_2,Andrena bicolor,TRUE,
,,,,,html-keyboard-response,32,275855,0.0-8.0-0.1,11,1,2023-03-14 19:48:30,95c447948bfde634df5be7bb21c2f1af,"Mozilla/5.0 (Windows NT 10.0; Win64; x64) AppleWebKit/537.36 (KHTML, like Gecko) Chrome/111.0.0.0 Safari/537.36",WebKit,Chrome,111.0.0.0,Windows,10,null,null,fixation,,,
,,,,,image-button-response,33,296460,0.0-8.0-1.1,11,1,2023-03-14 19:48:30,95c447948bfde634df5be7bb21c2f1af,"Mozilla/5.0 (Windows NT 10.0; Win64; x64) AppleWebKit/537.36 (KHTML, like Gecko) Chrome/111.0.0.0 Safari/537.36",WebKit,Chrome,111.0.0.0,Windows,10,20600,2,response_2,Andrena fulva,TRUE,
,,,,,html-keyboard-response,34,297223,0.0-8.0-0.2,11,1,2023-03-14 19:48:30,95c447948bfde634df5be7bb21c2f1af,"Mozilla/5.0 (Windows NT 10.0; Win64; x64) AppleWebKit/537.36 (KHTML, like Gecko) Chrome/111.0.0.0 Safari/537.36",WebKit,Chrome,111.0.0.0,Windows,10,null,null,fixation,,,
,,,,,image-button-response,35,321058,0.0-8.0-1.2,11,1,2023-03-14 19:48:30,95c447948bfde634df5be7bb21c2f1af,"Mozilla/5.0 (Windows NT 10.0; Win64; x64) AppleWebKit/537.36 (KHTML, like Gecko) Chrome/111.0.0.0 Safari/537.36",WebKit,Chrome,111.0.0.0,Windows,10,23830,4,response_2,Bombus lucorum,TRUE,
,,,,,html-keyboard-response,36,321322,0.0-8.0-0.3,11,1,2023-03-14 19:48:30,95c447948bfde634df5be7bb21c2f1af,"Mozilla/5.0 (Windows NT 10.0; Win64; x64) AppleWebKit/537.36 (KHTML, like Gecko) Chrome/111.0.0.0 Safari/537.36",WebKit,Chrome,111.0.0.0,Windows,10,null,null,fixation,,,
,,,,,image-button-response,37,331006,0.0-8.0-1.3,11,1,2023-03-14 19:48:30,95c447948bfde634df5be7bb21c2f1af,"Mozilla/5.0 (Windows NT 10.0; Win64; x64) AppleWebKit/537.36 (KHTML, like Gecko) Chrome/111.0.0.0 Safari/537.36",WebKit,Chrome,111.0.0.0,Windows,10,9676,0,response_2,Andrena fulva,FALSE,
,,,,,html-keyboard-response,38,331773,0.0-8.0-0.4,11,1,2023-03-14 19:48:30,95c447948bfde634df5be7bb21c2f1af,"Mozilla/5.0 (Windows NT 10.0; Win64; x64) AppleWebKit/537.36 (KHTML, like Gecko) Chrome/111.0.0.0 Safari/537.36",WebKit,Chrome,111.0.0.0,Windows,10,null,null,fixation,,,
,,,,,image-button-response,39,346038,0.0-8.0-1.4,11,1,2023-03-14 19:48:30,95c447948bfde634df5be7bb21c2f1af,"Mozilla/5.0 (Windows NT 10.0; Win64; x64) AppleWebKit/537.36 (KHTML, like Gecko) Chrome/111.0.0.0 Safari/537.36",WebKit,Chrome,111.0.0.0,Windows,10,14260,5,response_2,Bombus pratorum,TRUE,
,,,,,html-keyboard-response,40,346307,0.0-8.0-0.5,11,1,2023-03-14 19:48:30,95c447948bfde634df5be7bb21c2f1af,"Mozilla/5.0 (Windows NT 10.0; Win64; x64) AppleWebKit/537.36 (KHTML, like Gecko) Chrome/111.0.0.0 Safari/537.36",WebKit,Chrome,111.0.0.0,Windows,10,null,null,fixation,,,
,,,,,image-button-response,41,359856,0.0-8.0-1.5,11,1,2023-03-14 19:48:30,95c447948bfde634df5be7bb21c2f1af,"Mozilla/5.0 (Windows NT 10.0; Win64; x64) AppleWebKit/537.36 (KHTML, like Gecko) Chrome/111.0.0.0 Safari/537.36",WebKit,Chrome,111.0.0.0,Windows,10,13540,2,response_2,Andrena bicolor,FALSE,
,,,,,html-button-response,42,364458,0.0-9.0,11,1,2023-03-14 19:48:30,95c447948bfde634df5be7bb21c2f1af,"Mozilla/5.0 (Windows NT 10.0; Win64; x64) AppleWebKit/537.36 (KHTML, like Gecko) Chrome/111.0.0.0 Safari/537.36",WebKit,Chrome,111.0.0.0,Windows,10,4593,0,,,,
,,,,,html-button-response,43,366911,0.0-10.0,11,1,2023-03-14 19:48:30,95c447948bfde634df5be7bb21c2f1af,"Mozilla/5.0 (Windows NT 10.0; Win64; x64) AppleWebKit/537.36 (KHTML, like Gecko) Chrome/111.0.0.0 Safari/537.36",WebKit,Chrome,111.0.0.0,Windows,10,2448,0,,,,
TRUE,FALSE,[],[],[],preload,0,3632,0.0-0.0,3,1,2023-03-14 15:29:16,95c447948bfde634df5be7bb21c2f1af,Mozilla/5.0 (Windows NT 10.0; Win64; x64; rv:109.0) Gecko/20100101 Firefox/110.0,,Firefox,110,Windows,10,,,,,,
,,,,,html-button-response,1,17033,0.0-1.0,3,1,2023-03-14 15:29:16,95c447948bfde634df5be7bb21c2f1af,Mozilla/5.0 (Windows NT 10.0; Win64; x64; rv:109.0) Gecko/20100101 Firefox/110.0,,Firefox,110,Windows,10,13399,0,,,,
,,,,,html-button-response,2,205361,0.0-2.0,3,1,2023-03-14 15:29:16,95c447948bfde634df5be7bb21c2f1af,Mozilla/5.0 (Windows NT 10.0; Win64; x64; rv:109.0) Gecko/20100101 Firefox/110.0,,Firefox,110,Windows,10,188326,0,,,,
,,,,,html-button-response,3,542321,0.0-3.0,3,1,2023-03-14 15:29:16,95c447948bfde634df5be7bb21c2f1af,Mozilla/5.0 (Windows NT 10.0; Win64; x64; rv:109.0) Gecko/20100101 Firefox/110.0,,Firefox,110,Windows,10,336956,0,,,,
,,,,,html-keyboard-response,4,543591,0.0-4.0-0.0,3,1,2023-03-14 15:29:16,95c447948bfde634df5be7bb21c2f1af,Mozilla/5.0 (Windows NT 10.0; Win64; x64; rv:109.0) Gecko/20100101 Firefox/110.0,,Firefox,110,Windows,10,null,null,fixation,,,
,,,,,image-button-response,5,598050,0.0-4.0-1.0,3,1,2023-03-14 15:29:16,95c447948bfde634df5be7bb21c2f1af,Mozilla/5.0 (Windows NT 10.0; Win64; x64; rv:109.0) Gecko/20100101 Firefox/110.0,,Firefox,110,Windows,10,54455,5,response_1,Bombus lucorum,FALSE,
,,,,,html-keyboard-response,6,598805,0.0-4.0-0.1,3,1,2023-03-14 15:29:16,95c447948bfde634df5be7bb21c2f1af,Mozilla/5.0 (Windows NT 10.0; Win64; x64; rv:109.0) Gecko/20100101 Firefox/110.0,,Firefox,110,Windows,10,null,null,fixation,,,
,,,,,image-button-response,7,626873,0.0-4.0-1.1,3,1,2023-03-14 15:29:16,95c447948bfde634df5be7bb21c2f1af,Mozilla/5.0 (Windows NT 10.0; Win64; x64; rv:109.0) Gecko/20100101 Firefox/110.0,,Firefox,110,Windows,10,28065,0,response_1,Andrena bicolor,TRUE,
,,,,,html-keyboard-response,8,627634,0.0-4.0-0.2,3,1,2023-03-14 15:29:16,95c447948bfde634df5be7bb21c2f1af,Mozilla/5.0 (Windows NT 10.0; Win64; x64; rv:109.0) Gecko/20100101 Firefox/110.0,,Firefox,110,Windows,10,null,null,fixation,,,
,,,,,image-button-response,9,657018,0.0-4.0-1.2,3,1,2023-03-14 15:29:16,95c447948bfde634df5be7bb21c2f1af,Mozilla/5.0 (Windows NT 10.0; Win64; x64; rv:109.0) Gecko/20100101 Firefox/110.0,,Firefox,110,Windows,10,29379,1,response_1,Andrena flavipes,TRUE,
,,,,,html-keyboard-response,10,657277,0.0-4.0-0.3,3,1,2023-03-14 15:29:16,95c447948bfde634df5be7bb21c2f1af,Mozilla/5.0 (Windows NT 10.0; Win64; x64; rv:109.0) Gecko/20100101 Firefox/110.0,,Firefox,110,Windows,10,null,null,fixation,,,
,,,,,image-button-response,11,663993,0.0-4.0-1.3,3,1,2023-03-14 15:29:16,95c447948bfde634df5be7bb21c2f1af,Mozilla/5.0 (Windows NT 10.0; Win64; x64; rv:109.0) Gecko/20100101 Firefox/110.0,,Firefox,110,Windows,10,6710,3,response_1,Bombus pratorum,FALSE,
,,,,,html-keyboard-response,12,664760,0.0-4.0-0.4,3,1,2023-03-14 15:29:16,95c447948bfde634df5be7bb21c2f1af,Mozilla/5.0 (Windows NT 10.0; Win64; x64; rv:109.0) Gecko/20100101 Firefox/110.0,,Firefox,110,Windows,10,null,null,fixation,,,
,,,,,image-button-response,13,680441,0.0-4.0-1.4,3,1,2023-03-14 15:29:16,95c447948bfde634df5be7bb21c2f1af,Mozilla/5.0 (Windows NT 10.0; Win64; x64; rv:109.0) Gecko/20100101 Firefox/110.0,,Firefox,110,Windows,10,15679,1,response_1,Andrena flavipes,TRUE,
,,,,,html-keyboard-response,14,681210,0.0-4.0-0.5,3,1,2023-03-14 15:29:16,95c447948bfde634df5be7bb21c2f1af,Mozilla/5.0 (Windows NT 10.0; Win64; x64; rv:109.0) Gecko/20100101 Firefox/110.0,,Firefox,110,Windows,10,null,null,fixation,,,
,,,,,image-button-response,15,701201,0.0-4.0-1.5,3,1,2023-03-14 15:29:16,95c447948bfde634df5be7bb21c2f1af,Mozilla/5.0 (Windows NT 10.0; Win64; x64; rv:109.0) Gecko/20100101 Firefox/110.0,,Firefox,110,Windows,10,19986,4,response_1,Bombus lucorum,TRUE,
,,,,,html-button-response,16,720490,0.0-5.0,3,1,2023-03-14 15:29:16,95c447948bfde634df5be7bb21c2f1af,Mozilla/5.0 (Windows NT 10.0; Win64; x64; rv:109.0) Gecko/20100101 Firefox/110.0,,Firefox,110,Windows,10,19287,0,,,,
,,,,,html-keyboard-response,17,720751,0.0-6.0-0.0,3,1,2023-03-14 15:29:16,95c447948bfde634df5be7bb21c2f1af,Mozilla/5.0 (Windows NT 10.0; Win64; x64; rv:109.0) Gecko/20100101 Firefox/110.0,,Firefox,110,Windows,10,null,null,fixation,,,
,,,,,image-button-response,18,744689,0.0-6.0-1.0,3,1,2023-03-14 15:29:16,95c447948bfde634df5be7bb21c2f1af,Mozilla/5.0 (Windows NT 10.0; Win64; x64; rv:109.0) Gecko/20100101 Firefox/110.0,,Firefox,110,Windows,10,23930,1,response_pred,Andrena flavipes,TRUE,Andrena flavipes
,,,,,html-keyboard-response,19,745448,0.0-6.0-0.1,3,1,2023-03-14 15:29:16,95c447948bfde634df5be7bb21c2f1af,Mozilla/5.0 (Windows NT 10.0; Win64; x64; rv:109.0) Gecko/20100101 Firefox/110.0,,Firefox,110,Windows,10,null,null,fixation,,,
,,,,,image-button-response,20,784633,0.0-6.0-1.1,3,1,2023-03-14 15:29:16,95c447948bfde634df5be7bb21c2f1af,Mozilla/5.0 (Windows NT 10.0; Win64; x64; rv:109.0) Gecko/20100101 Firefox/110.0,,Firefox,110,Windows,10,39180,4,response_pred,Bombus lucorum,TRUE,Bombus hortorum
,,,,,html-keyboard-response,21,784884,0.0-6.0-0.2,3,1,2023-03-14 15:29:16,95c447948bfde634df5be7bb21c2f1af,Mozilla/5.0 (Windows NT 10.0; Win64; x64; rv:109.0) Gecko/20100101 Firefox/110.0,,Firefox,110,Windows,10,null,null,fixation,,,
,,,,,image-button-response,22,799881,0.0-6.0-1.2,3,1,2023-03-14 15:29:16,95c447948bfde634df5be7bb21c2f1af,Mozilla/5.0 (Windows NT 10.0; Win64; x64; rv:109.0) Gecko/20100101 Firefox/110.0,,Firefox,110,Windows,10,14995,5,response_pred,Bombus pratorum,TRUE,Bombus lucorum
,,,,,html-keyboard-response,23,800138,0.0-6.0-0.3,3,1,2023-03-14 15:29:16,95c447948bfde634df5be7bb21c2f1af,Mozilla/5.0 (Windows NT 10.0; Win64; x64; rv:109.0) Gecko/20100101 Firefox/110.0,,Firefox,110,Windows,10,null,null,fixation,,,
,,,,,image-button-response,24,808905,0.0-6.0-1.3,3,1,2023-03-14 15:29:16,95c447948bfde634df5be7bb21c2f1af,Mozilla/5.0 (Windows NT 10.0; Win64; x64; rv:109.0) Gecko/20100101 Firefox/110.0,,Firefox,110,Windows,10,8765,2,response_pred,Andrena fulva,TRUE,Andrena fulva
,,,,,html-keyboard-response,25,809408,0.0-6.0-0.4,3,1,2023-03-14 15:29:16,95c447948bfde634df5be7bb21c2f1af,Mozilla/5.0 (Windows NT 10.0; Win64; x64; rv:109.0) Gecko/20100101 Firefox/110.0,,Firefox,110,Windows,10,null,null,fixation,,,
,,,,,image-button-response,26,849753,0.0-6.0-1.4,3,1,2023-03-14 15:29:16,95c447948bfde634df5be7bb21c2f1af,Mozilla/5.0 (Windows NT 10.0; Win64; x64; rv:109.0) Gecko/20100101 Firefox/110.0,,Firefox,110,Windows,10,40340,3,response_pred,Bombus hortorum,TRUE,Bombus pratorum
,,,,,html-keyboard-response,27,850266,0.0-6.0-0.5,3,1,2023-03-14 15:29:16,95c447948bfde634df5be7bb21c2f1af,Mozilla/5.0 (Windows NT 10.0; Win64; x64; rv:109.0) Gecko/20100101 Firefox/110.0,,Firefox,110,Windows,10,null,null,fixation,,,
,,,,,image-button-response,28,869729,0.0-6.0-1.5,3,1,2023-03-14 15:29:16,95c447948bfde634df5be7bb21c2f1af,Mozilla/5.0 (Windows NT 10.0; Win64; x64; rv:109.0) Gecko/20100101 Firefox/110.0,,Firefox,110,Windows,10,19461,0,response_pred,Andrena bicolor,TRUE,Andrena bicolor
,,,,,html-button-response,29,889801,0.0-7.0,3,1,2023-03-14 15:29:16,95c447948bfde634df5be7bb21c2f1af,Mozilla/5.0 (Windows NT 10.0; Win64; x64; rv:109.0) Gecko/20100101 Firefox/110.0,,Firefox,110,Windows,10,20071,0,,,,
,,,,,html-keyboard-response,30,890305,0.0-8.0-0.0,3,1,2023-03-14 15:29:16,95c447948bfde634df5be7bb21c2f1af,Mozilla/5.0 (Windows NT 10.0; Win64; x64; rv:109.0) Gecko/20100101 Firefox/110.0,,Firefox,110,Windows,10,null,null,fixation,,,
,,,,,image-button-response,31,943345,0.0-8.0-1.0,3,1,2023-03-14 15:29:16,95c447948bfde634df5be7bb21c2f1af,Mozilla/5.0 (Windows NT 10.0; Win64; x64; rv:109.0) Gecko/20100101 Firefox/110.0,,Firefox,110,Windows,10,53035,4,response_2,Bombus hortorum,FALSE,
,,,,,html-keyboard-response,32,944106,0.0-8.0-0.1,3,1,2023-03-14 15:29:16,95c447948bfde634df5be7bb21c2f1af,Mozilla/5.0 (Windows NT 10.0; Win64; x64; rv:109.0) Gecko/20100101 Firefox/110.0,,Firefox,110,Windows,10,null,null,fixation,,,
,,,,,image-button-response,33,962161,0.0-8.0-1.1,3,1,2023-03-14 15:29:16,95c447948bfde634df5be7bb21c2f1af,Mozilla/5.0 (Windows NT 10.0; Win64; x64; rv:109.0) Gecko/20100101 Firefox/110.0,,Firefox,110,Windows,10,18053,4,response_2,Bombus hortorum,FALSE,
,,,,,html-keyboard-response,34,962671,0.0-8.0-0.2,3,1,2023-03-14 15:29:16,95c447948bfde634df5be7bb21c2f1af,Mozilla/5.0 (Windows NT 10.0; Win64; x64; rv:109.0) Gecko/20100101 Firefox/110.0,,Firefox,110,Windows,10,null,null,fixation,,,
,,,,,image-button-response,35,974121,0.0-8.0-1.2,3,1,2023-03-14 15:29:16,95c447948bfde634df5be7bb21c2f1af,Mozilla/5.0 (Windows NT 10.0; Win64; x64; rv:109.0) Gecko/20100101 Firefox/110.0,,Firefox,110,Windows,10,11445,2,response_2,Andrena fulva,TRUE,
,,,,,html-keyboard-response,36,974373,0.0-8.0-0.3,3,1,2023-03-14 15:29:16,95c447948bfde634df5be7bb21c2f1af,Mozilla/5.0 (Windows NT 10.0; Win64; x64; rv:109.0) Gecko/20100101 Firefox/110.0,,Firefox,110,Windows,10,null,null,fixation,,,
,,,,,image-button-response,37,986521,0.0-8.0-1.3,3,1,2023-03-14 15:29:16,95c447948bfde634df5be7bb21c2f1af,Mozilla/5.0 (Windows NT 10.0; Win64; x64; rv:109.0) Gecko/20100101 Firefox/110.0,,Firefox,110,Windows,10,12145,0,response_2,Andrena bicolor,TRUE,
,,,,,html-keyboard-response,38,986773,0.0-8.0-0.4,3,1,2023-03-14 15:29:16,95c447948bfde634df5be7bb21c2f1af,Mozilla/5.0 (Windows NT 10.0; Win64; x64; rv:109.0) Gecko/20100101 Firefox/110.0,,Firefox,110,Windows,10,null,null,fixation,,,
,,,,,image-button-response,39,1039281,0.0-8.0-1.4,3,1,2023-03-14 15:29:16,95c447948bfde634df5be7bb21c2f1af,Mozilla/5.0 (Windows NT 10.0; Win64; x64; rv:109.0) Gecko/20100101 Firefox/110.0,,Firefox,110,Windows,10,52505,5,response_2,Bombus pratorum,TRUE,
,,,,,html-keyboard-response,40,1039794,0.0-8.0-0.5,3,1,2023-03-14 15:29:16,95c447948bfde634df5be7bb21c2f1af,Mozilla/5.0 (Windows NT 10.0; Win64; x64; rv:109.0) Gecko/20100101 Firefox/110.0,,Firefox,110,Windows,10,null,null,fixation,,,
,,,,,image-button-response,41,1063722,0.0-8.0-1.5,3,1,2023-03-14 15:29:16,95c447948bfde634df5be7bb21c2f1af,Mozilla/5.0 (Windows NT 10.0; Win64; x64; rv:109.0) Gecko/20100101 Firefox/110.0,,Firefox,110,Windows,10,23924,2,response_2,Andrena fulva,TRUE,
,,,,,html-button-response,42,1074425,0.0-9.0,3,1,2023-03-14 15:29:16,95c447948bfde634df5be7bb21c2f1af,Mozilla/5.0 (Windows NT 10.0; Win64; x64; rv:109.0) Gecko/20100101 Firefox/110.0,,Firefox,110,Windows,10,10702,0,,,,
,,,,,html-button-response,43,1076393,0.0-10.0,3,1,2023-03-14 15:29:16,95c447948bfde634df5be7bb21c2f1af,Mozilla/5.0 (Windows NT 10.0; Win64; x64; rv:109.0) Gecko/20100101 Firefox/110.0,,Firefox,110,Windows,10,1967,0,,,,
TRUE,FALSE,[],[],[],preload,0,329,0.0-0.0,14,1,2023-03-14 23:02:55,95c447948bfde634df5be7bb21c2f1af,"Mozilla/5.0 (Linux; Android 13; SM-G780G) AppleWebKit/537.36 (KHTML, like Gecko) Chrome/110.0.0.0 Mobile Safari/537.36",WebKit,Chrome,110.0.0.0,AndroidOS,13,,,,,,
,,,,,html-button-response,1,3315,0.0-1.0,14,1,2023-03-14 23:02:55,95c447948bfde634df5be7bb21c2f1af,"Mozilla/5.0 (Linux; Android 13; SM-G780G) AppleWebKit/537.36 (KHTML, like Gecko) Chrome/110.0.0.0 Mobile Safari/537.36",WebKit,Chrome,110.0.0.0,AndroidOS,13,2982,0,,,,
,,,,,html-button-response,2,17590,0.0-2.0,14,1,2023-03-14 23:02:55,95c447948bfde634df5be7bb21c2f1af,"Mozilla/5.0 (Linux; Android 13; SM-G780G) AppleWebKit/537.36 (KHTML, like Gecko) Chrome/110.0.0.0 Mobile Safari/537.36",WebKit,Chrome,110.0.0.0,AndroidOS,13,14273,0,,,,
,,,,,html-button-response,3,82363,0.0-3.0,14,1,2023-03-14 23:02:55,95c447948bfde634df5be7bb21c2f1af,"Mozilla/5.0 (Linux; Android 13; SM-G780G) AppleWebKit/537.36 (KHTML, like Gecko) Chrome/110.0.0.0 Mobile Safari/537.36",WebKit,Chrome,110.0.0.0,AndroidOS,13,64769,0,,,,
,,,,,html-keyboard-response,4,83886,0.0-4.0-0.0,14,1,2023-03-14 23:02:55,95c447948bfde634df5be7bb21c2f1af,"Mozilla/5.0 (Linux; Android 13; SM-G780G) AppleWebKit/537.36 (KHTML, like Gecko) Chrome/110.0.0.0 Mobile Safari/537.36",WebKit,Chrome,110.0.0.0,AndroidOS,13,null,null,fixation,,,
,,,,,image-button-response,5,111896,0.0-4.0-1.0,14,1,2023-03-14 23:02:55,95c447948bfde634df5be7bb21c2f1af,"Mozilla/5.0 (Linux; Android 13; SM-G780G) AppleWebKit/537.36 (KHTML, like Gecko) Chrome/110.0.0.0 Mobile Safari/537.36",WebKit,Chrome,110.0.0.0,AndroidOS,13,27982,0,response_1,Andrena fulva,FALSE,
,,,,,html-keyboard-response,6,112156,0.0-4.0-0.1,14,1,2023-03-14 23:02:55,95c447948bfde634df5be7bb21c2f1af,"Mozilla/5.0 (Linux; Android 13; SM-G780G) AppleWebKit/537.36 (KHTML, like Gecko) Chrome/110.0.0.0 Mobile Safari/537.36",WebKit,Chrome,110.0.0.0,AndroidOS,13,null,null,fixation,,,
,,,,,image-button-response,7,121875,0.0-4.0-1.1,14,1,2023-03-14 23:02:55,95c447948bfde634df5be7bb21c2f1af,"Mozilla/5.0 (Linux; Android 13; SM-G780G) AppleWebKit/537.36 (KHTML, like Gecko) Chrome/110.0.0.0 Mobile Safari/537.36",WebKit,Chrome,110.0.0.0,AndroidOS,13,9709,3,response_1,Bombus pratorum,FALSE,
,,,,,html-keyboard-response,8,122131,0.0-4.0-0.2,14,1,2023-03-14 23:02:55,95c447948bfde634df5be7bb21c2f1af,"Mozilla/5.0 (Linux; Android 13; SM-G780G) AppleWebKit/537.36 (KHTML, like Gecko) Chrome/110.0.0.0 Mobile Safari/537.36",WebKit,Chrome,110.0.0.0,AndroidOS,13,null,null,fixation,,,
,,,,,image-button-response,9,136692,0.0-4.0-1.2,14,1,2023-03-14 23:02:55,95c447948bfde634df5be7bb21c2f1af,"Mozilla/5.0 (Linux; Android 13; SM-G780G) AppleWebKit/537.36 (KHTML, like Gecko) Chrome/110.0.0.0 Mobile Safari/537.36",WebKit,Chrome,110.0.0.0,AndroidOS,13,14551,0,response_1,Andrena bicolor,TRUE,
,,,,,html-keyboard-response,10,137196,0.0-4.0-0.3,14,1,2023-03-14 23:02:55,95c447948bfde634df5be7bb21c2f1af,"Mozilla/5.0 (Linux; Android 13; SM-G780G) AppleWebKit/537.36 (KHTML, like Gecko) Chrome/110.0.0.0 Mobile Safari/537.36",WebKit,Chrome,110.0.0.0,AndroidOS,13,null,null,fixation,,,
,,,,,image-button-response,11,160805,0.0-4.0-1.3,14,1,2023-03-14 23:02:55,95c447948bfde634df5be7bb21c2f1af,"Mozilla/5.0 (Linux; Android 13; SM-G780G) AppleWebKit/537.36 (KHTML, like Gecko) Chrome/110.0.0.0 Mobile Safari/537.36",WebKit,Chrome,110.0.0.0,AndroidOS,13,23599,4,response_1,Bombus pratorum,FALSE,
,,,,,html-keyboard-response,12,161065,0.0-4.0-0.4,14,1,2023-03-14 23:02:55,95c447948bfde634df5be7bb21c2f1af,"Mozilla/5.0 (Linux; Android 13; SM-G780G) AppleWebKit/537.36 (KHTML, like Gecko) Chrome/110.0.0.0 Mobile Safari/537.36",WebKit,Chrome,110.0.0.0,AndroidOS,13,null,null,fixation,,,
,,,,,image-button-response,13,170224,0.0-4.0-1.4,14,1,2023-03-14 23:02:55,95c447948bfde634df5be7bb21c2f1af,"Mozilla/5.0 (Linux; Android 13; SM-G780G) AppleWebKit/537.36 (KHTML, like Gecko) Chrome/110.0.0.0 Mobile Safari/537.36",WebKit,Chrome,110.0.0.0,AndroidOS,13,9153,4,response_1,Bombus hortorum,FALSE,
,,,,,html-keyboard-response,14,170484,0.0-4.0-0.5,14,1,2023-03-14 23:02:55,95c447948bfde634df5be7bb21c2f1af,"Mozilla/5.0 (Linux; Android 13; SM-G780G) AppleWebKit/537.36 (KHTML, like Gecko) Chrome/110.0.0.0 Mobile Safari/537.36",WebKit,Chrome,110.0.0.0,AndroidOS,13,null,null,fixation,,,
,,,,,image-button-response,15,177915,0.0-4.0-1.5,14,1,2023-03-14 23:02:55,95c447948bfde634df5be7bb21c2f1af,"Mozilla/5.0 (Linux; Android 13; SM-G780G) AppleWebKit/537.36 (KHTML, like Gecko) Chrome/110.0.0.0 Mobile Safari/537.36",WebKit,Chrome,110.0.0.0,AndroidOS,13,7422,1,response_1,Andrena bicolor,FALSE,
,,,,,html-button-response,16,183243,0.0-5.0,14,1,2023-03-14 23:02:55,95c447948bfde634df5be7bb21c2f1af,"Mozilla/5.0 (Linux; Android 13; SM-G780G) AppleWebKit/537.36 (KHTML, like Gecko) Chrome/110.0.0.0 Mobile Safari/537.36",WebKit,Chrome,110.0.0.0,AndroidOS,13,5324,0,,,,
,,,,,html-keyboard-response,17,183499,0.0-6.0-0.0,14,1,2023-03-14 23:02:55,95c447948bfde634df5be7bb21c2f1af,"Mozilla/5.0 (Linux; Android 13; SM-G780G) AppleWebKit/537.36 (KHTML, like Gecko) Chrome/110.0.0.0 Mobile Safari/537.36",WebKit,Chrome,110.0.0.0,AndroidOS,13,null,null,fixation,,,
,,,,,image-button-response,18,196322,0.0-6.0-1.0,14,1,2023-03-14 23:02:55,95c447948bfde634df5be7bb21c2f1af,"Mozilla/5.0 (Linux; Android 13; SM-G780G) AppleWebKit/537.36 (KHTML, like Gecko) Chrome/110.0.0.0 Mobile Safari/537.36",WebKit,Chrome,110.0.0.0,AndroidOS,13,12817,0,response_pred,Andrena fulva,FALSE,Andrena fulva
,,,,,html-keyboard-response,19,196827,0.0-6.0-0.1,14,1,2023-03-14 23:02:55,95c447948bfde634df5be7bb21c2f1af,"Mozilla/5.0 (Linux; Android 13; SM-G780G) AppleWebKit/537.36 (KHTML, like Gecko) Chrome/110.0.0.0 Mobile Safari/537.36",WebKit,Chrome,110.0.0.0,AndroidOS,13,null,null,fixation,,,
,,,,,image-button-response,20,207193,0.0-6.0-1.1,14,1,2023-03-14 23:02:55,95c447948bfde634df5be7bb21c2f1af,"Mozilla/5.0 (Linux; Android 13; SM-G780G) AppleWebKit/537.36 (KHTML, like Gecko) Chrome/110.0.0.0 Mobile Safari/537.36",WebKit,Chrome,110.0.0.0,AndroidOS,13,10357,3,response_pred,Bombus pratorum,FALSE,Bombus lucorum
,,,,,html-keyboard-response,21,207699,0.0-6.0-0.2,14,1,2023-03-14 23:02:55,95c447948bfde634df5be7bb21c2f1af,"Mozilla/5.0 (Linux; Android 13; SM-G780G) AppleWebKit/537.36 (KHTML, like Gecko) Chrome/110.0.0.0 Mobile Safari/537.36",WebKit,Chrome,110.0.0.0,AndroidOS,13,null,null,fixation,,,
,,,,,image-button-response,22,220244,0.0-6.0-1.2,14,1,2023-03-14 23:02:55,95c447948bfde634df5be7bb21c2f1af,"Mozilla/5.0 (Linux; Android 13; SM-G780G) AppleWebKit/537.36 (KHTML, like Gecko) Chrome/110.0.0.0 Mobile Safari/537.36",WebKit,Chrome,110.0.0.0,AndroidOS,13,12536,1,response_pred,Andrena bicolor,FALSE,Andrena bicolor
,,,,,html-keyboard-response,23,221005,0.0-6.0-0.3,14,1,2023-03-14 23:02:55,95c447948bfde634df5be7bb21c2f1af,"Mozilla/5.0 (Linux; Android 13; SM-G780G) AppleWebKit/537.36 (KHTML, like Gecko) Chrome/110.0.0.0 Mobile Safari/537.36",WebKit,Chrome,110.0.0.0,AndroidOS,13,null,null,fixation,,,
,,,,,image-button-response,24,228727,0.0-6.0-1.3,14,1,2023-03-14 23:02:55,95c447948bfde634df5be7bb21c2f1af,"Mozilla/5.0 (Linux; Android 13; SM-G780G) AppleWebKit/537.36 (KHTML, like Gecko) Chrome/110.0.0.0 Mobile Safari/537.36",WebKit,Chrome,110.0.0.0,AndroidOS,13,7711,4,response_pred,Bombus lucorum,TRUE,Bombus hortorum
,,,,,html-keyboard-response,25,229235,0.0-6.0-0.4,14,1,2023-03-14 23:02:55,95c447948bfde634df5be7bb21c2f1af,"Mozilla/5.0 (Linux; Android 13; SM-G780G) AppleWebKit/537.36 (KHTML, like Gecko) Chrome/110.0.0.0 Mobile Safari/537.36",WebKit,Chrome,110.0.0.0,AndroidOS,13,null,null,fixation,,,
,,,,,image-button-response,26,233202,0.0-6.0-1.4,14,1,2023-03-14 23:02:55,95c447948bfde634df5be7bb21c2f1af,"Mozilla/5.0 (Linux; Android 13; SM-G780G) AppleWebKit/537.36 (KHTML, like Gecko) Chrome/110.0.0.0 Mobile Safari/537.36",WebKit,Chrome,110.0.0.0,AndroidOS,13,3957,4,response_pred,Bombus hortorum,FALSE,Bombus pratorum
,,,,,html-keyboard-response,27,233459,0.0-6.0-0.5,14,1,2023-03-14 23:02:55,95c447948bfde634df5be7bb21c2f1af,"Mozilla/5.0 (Linux; Android 13; SM-G780G) AppleWebKit/537.36 (KHTML, like Gecko) Chrome/110.0.0.0 Mobile Safari/537.36",WebKit,Chrome,110.0.0.0,AndroidOS,13,null,null,fixation,,,
,,,,,image-button-response,28,239214,0.0-6.0-1.5,14,1,2023-03-14 23:02:55,95c447948bfde634df5be7bb21c2f1af,"Mozilla/5.0 (Linux; Android 13; SM-G780G) AppleWebKit/537.36 (KHTML, like Gecko) Chrome/110.0.0.0 Mobile Safari/537.36",WebKit,Chrome,110.0.0.0,AndroidOS,13,5750,1,response_pred,Andrena flavipes,TRUE,Andrena flavipes
,,,,,html-button-response,29,247950,0.0-7.0,14,1,2023-03-14 23:02:55,95c447948bfde634df5be7bb21c2f1af,"Mozilla/5.0 (Linux; Android 13; SM-G780G) AppleWebKit/537.36 (KHTML, like Gecko) Chrome/110.0.0.0 Mobile Safari/537.36",WebKit,Chrome,110.0.0.0,AndroidOS,13,8732,0,,,,
,,,,,html-keyboard-response,30,248204,0.0-8.0-0.0,14,1,2023-03-14 23:02:55,95c447948bfde634df5be7bb21c2f1af,"Mozilla/5.0 (Linux; Android 13; SM-G780G) AppleWebKit/537.36 (KHTML, like Gecko) Chrome/110.0.0.0 Mobile Safari/537.36",WebKit,Chrome,110.0.0.0,AndroidOS,13,null,null,fixation,,,
,,,,,image-button-response,31,256211,0.0-8.0-1.0,14,1,2023-03-14 23:02:55,95c447948bfde634df5be7bb21c2f1af,"Mozilla/5.0 (Linux; Android 13; SM-G780G) AppleWebKit/537.36 (KHTML, like Gecko) Chrome/110.0.0.0 Mobile Safari/537.36",WebKit,Chrome,110.0.0.0,AndroidOS,13,7997,3,response_2,Bombus hortorum,TRUE,
,,,,,html-keyboard-response,32,256467,0.0-8.0-0.1,14,1,2023-03-14 23:02:55,95c447948bfde634df5be7bb21c2f1af,"Mozilla/5.0 (Linux; Android 13; SM-G780G) AppleWebKit/537.36 (KHTML, like Gecko) Chrome/110.0.0.0 Mobile Safari/537.36",WebKit,Chrome,110.0.0.0,AndroidOS,13,null,null,fixation,,,
,,,,,image-button-response,33,270170,0.0-8.0-1.1,14,1,2023-03-14 23:02:55,95c447948bfde634df5be7bb21c2f1af,"Mozilla/5.0 (Linux; Android 13; SM-G780G) AppleWebKit/537.36 (KHTML, like Gecko) Chrome/110.0.0.0 Mobile Safari/537.36",WebKit,Chrome,110.0.0.0,AndroidOS,13,13697,2,response_2,Andrena flavipes,FALSE,
,,,,,html-keyboard-response,34,270677,0.0-8.0-0.2,14,1,2023-03-14 23:02:55,95c447948bfde634df5be7bb21c2f1af,"Mozilla/5.0 (Linux; Android 13; SM-G780G) AppleWebKit/537.36 (KHTML, like Gecko) Chrome/110.0.0.0 Mobile Safari/537.36",WebKit,Chrome,110.0.0.0,AndroidOS,13,null,null,fixation,,,
,,,,,image-button-response,35,280125,0.0-8.0-1.2,14,1,2023-03-14 23:02:55,95c447948bfde634df5be7bb21c2f1af,"Mozilla/5.0 (Linux; Android 13; SM-G780G) AppleWebKit/537.36 (KHTML, like Gecko) Chrome/110.0.0.0 Mobile Safari/537.36",WebKit,Chrome,110.0.0.0,AndroidOS,13,9437,4,response_2,Bombus lucorum,TRUE,
,,,,,html-keyboard-response,36,280885,0.0-8.0-0.3,14,1,2023-03-14 23:02:55,95c447948bfde634df5be7bb21c2f1af,"Mozilla/5.0 (Linux; Android 13; SM-G780G) AppleWebKit/537.36 (KHTML, like Gecko) Chrome/110.0.0.0 Mobile Safari/537.36",WebKit,Chrome,110.0.0.0,AndroidOS,13,null,null,fixation,,,
,,,,,image-button-response,37,285443,0.0-8.0-1.3,14,1,2023-03-14 23:02:55,95c447948bfde634df5be7bb21c2f1af,"Mozilla/5.0 (Linux; Android 13; SM-G780G) AppleWebKit/537.36 (KHTML, like Gecko) Chrome/110.0.0.0 Mobile Safari/537.36",WebKit,Chrome,110.0.0.0,AndroidOS,13,4547,4,response_2,Bombus lucorum,TRUE,
,,,,,html-keyboard-response,38,285700,0.0-8.0-0.4,14,1,2023-03-14 23:02:55,95c447948bfde634df5be7bb21c2f1af,"Mozilla/5.0 (Linux; Android 13; SM-G780G) AppleWebKit/537.36 (KHTML, like Gecko) Chrome/110.0.0.0 Mobile Safari/537.36",WebKit,Chrome,110.0.0.0,AndroidOS,13,null,null,fixation,,,
,,,,,image-button-response,39,295259,0.0-8.0-1.4,14,1,2023-03-14 23:02:55,95c447948bfde634df5be7bb21c2f1af,"Mozilla/5.0 (Linux; Android 13; SM-G780G) AppleWebKit/537.36 (KHTML, like Gecko) Chrome/110.0.0.0 Mobile Safari/537.36",WebKit,Chrome,110.0.0.0,AndroidOS,13,9549,0,response_2,Andrena fulva,FALSE,
,,,,,html-keyboard-response,40,295515,0.0-8.0-0.5,14,1,2023-03-14 23:02:55,95c447948bfde634df5be7bb21c2f1af,"Mozilla/5.0 (Linux; Android 13; SM-G780G) AppleWebKit/537.36 (KHTML, like Gecko) Chrome/110.0.0.0 Mobile Safari/537.36",WebKit,Chrome,110.0.0.0,AndroidOS,13,null,null,fixation,,,
,,,,,image-button-response,41,300957,0.0-8.0-1.5,14,1,2023-03-14 23:02:55,95c447948bfde634df5be7bb21c2f1af,"Mozilla/5.0 (Linux; Android 13; SM-G780G) AppleWebKit/537.36 (KHTML, like Gecko) Chrome/110.0.0.0 Mobile Safari/537.36",WebKit,Chrome,110.0.0.0,AndroidOS,13,5436,2,response_2,Andrena flavipes,FALSE,
,,,,,html-button-response,42,304062,0.0-9.0,14,1,2023-03-14 23:02:55,95c447948bfde634df5be7bb21c2f1af,"Mozilla/5.0 (Linux; Android 13; SM-G780G) AppleWebKit/537.36 (KHTML, like Gecko) Chrome/110.0.0.0 Mobile Safari/537.36",WebKit,Chrome,110.0.0.0,AndroidOS,13,3101,0,,,,
,,,,,html-button-response,43,305459,0.0-10.0,14,1,2023-03-14 23:02:55,95c447948bfde634df5be7bb21c2f1af,"Mozilla/5.0 (Linux; Android 13; SM-G780G) AppleWebKit/537.36 (KHTML, like Gecko) Chrome/110.0.0.0 Mobile Safari/537.36",WebKit,Chrome,110.0.0.0,AndroidOS,13,1394,0,,,,
TRUE,FALSE,[],[],[],preload,0,1336,0.0-0.0,8,1,2023-03-14 18:17:39,95c447948bfde634df5be7bb21c2f1af,"Mozilla/5.0 (Linux; Android 10; MAR-LX1A) AppleWebKit/537.36 (KHTML, like Gecko) Chrome/110.0.0.0 Mobile Safari/537.36",WebKit,Chrome,110.0.0.0,AndroidOS,10,,,,,,
,,,,,html-button-response,1,2775,0.0-1.0,8,1,2023-03-14 18:17:39,95c447948bfde634df5be7bb21c2f1af,"Mozilla/5.0 (Linux; Android 10; MAR-LX1A) AppleWebKit/537.36 (KHTML, like Gecko) Chrome/110.0.0.0 Mobile Safari/537.36",WebKit,Chrome,110.0.0.0,AndroidOS,10,1425,0,,,,
,,,,,html-button-response,2,6907,0.0-2.0,8,1,2023-03-14 18:17:39,95c447948bfde634df5be7bb21c2f1af,"Mozilla/5.0 (Linux; Android 10; MAR-LX1A) AppleWebKit/537.36 (KHTML, like Gecko) Chrome/110.0.0.0 Mobile Safari/537.36",WebKit,Chrome,110.0.0.0,AndroidOS,10,4122,0,,,,
,,,,,html-button-response,3,63980,0.0-3.0,8,1,2023-03-14 18:17:39,95c447948bfde634df5be7bb21c2f1af,"Mozilla/5.0 (Linux; Android 10; MAR-LX1A) AppleWebKit/537.36 (KHTML, like Gecko) Chrome/110.0.0.0 Mobile Safari/537.36",WebKit,Chrome,110.0.0.0,AndroidOS,10,57057,0,,,,
,,,,,html-keyboard-response,4,65509,0.0-4.0-0.0,8,1,2023-03-14 18:17:39,95c447948bfde634df5be7bb21c2f1af,"Mozilla/5.0 (Linux; Android 10; MAR-LX1A) AppleWebKit/537.36 (KHTML, like Gecko) Chrome/110.0.0.0 Mobile Safari/537.36",WebKit,Chrome,110.0.0.0,AndroidOS,10,null,null,fixation,,,
,,,,,image-button-response,5,119000,0.0-4.0-1.0,8,1,2023-03-14 18:17:39,95c447948bfde634df5be7bb21c2f1af,"Mozilla/5.0 (Linux; Android 10; MAR-LX1A) AppleWebKit/537.36 (KHTML, like Gecko) Chrome/110.0.0.0 Mobile Safari/537.36",WebKit,Chrome,110.0.0.0,AndroidOS,10,53391,0,response_1,Andrena bicolor,TRUE,
,,,,,html-keyboard-response,6,119517,0.0-4.0-0.1,8,1,2023-03-14 18:17:39,95c447948bfde634df5be7bb21c2f1af,"Mozilla/5.0 (Linux; Android 10; MAR-LX1A) AppleWebKit/537.36 (KHTML, like Gecko) Chrome/110.0.0.0 Mobile Safari/537.36",WebKit,Chrome,110.0.0.0,AndroidOS,10,null,null,fixation,,,
,,,,,image-button-response,7,156464,0.0-4.0-1.1,8,1,2023-03-14 18:17:39,95c447948bfde634df5be7bb21c2f1af,"Mozilla/5.0 (Linux; Android 10; MAR-LX1A) AppleWebKit/537.36 (KHTML, like Gecko) Chrome/110.0.0.0 Mobile Safari/537.36",WebKit,Chrome,110.0.0.0,AndroidOS,10,36918,4,response_1,Bombus lucorum,TRUE,
,,,,,html-keyboard-response,8,156980,0.0-4.0-0.2,8,1,2023-03-14 18:17:39,95c447948bfde634df5be7bb21c2f1af,"Mozilla/5.0 (Linux; Android 10; MAR-LX1A) AppleWebKit/537.36 (KHTML, like Gecko) Chrome/110.0.0.0 Mobile Safari/537.36",WebKit,Chrome,110.0.0.0,AndroidOS,10,null,null,fixation,,,
,,,,,image-button-response,9,159816,0.0-4.0-1.2,8,1,2023-03-14 18:17:39,95c447948bfde634df5be7bb21c2f1af,"Mozilla/5.0 (Linux; Android 10; MAR-LX1A) AppleWebKit/537.36 (KHTML, like Gecko) Chrome/110.0.0.0 Mobile Safari/537.36",WebKit,Chrome,110.0.0.0,AndroidOS,10,2797,4,response_1,Bombus hortorum,FALSE,
,,,,,html-keyboard-response,10,160077,0.0-4.0-0.3,8,1,2023-03-14 18:17:39,95c447948bfde634df5be7bb21c2f1af,"Mozilla/5.0 (Linux; Android 10; MAR-LX1A) AppleWebKit/537.36 (KHTML, like Gecko) Chrome/110.0.0.0 Mobile Safari/537.36",WebKit,Chrome,110.0.0.0,AndroidOS,10,null,null,fixation,,,
,,,,,image-button-response,11,181104,0.0-4.0-1.3,8,1,2023-03-14 18:17:39,95c447948bfde634df5be7bb21c2f1af,"Mozilla/5.0 (Linux; Android 10; MAR-LX1A) AppleWebKit/537.36 (KHTML, like Gecko) Chrome/110.0.0.0 Mobile Safari/537.36",WebKit,Chrome,110.0.0.0,AndroidOS,10,20991,4,response_1,Bombus pratorum,FALSE,
,,,,,html-keyboard-response,12,181868,0.0-4.0-0.4,8,1,2023-03-14 18:17:39,95c447948bfde634df5be7bb21c2f1af,"Mozilla/5.0 (Linux; Android 10; MAR-LX1A) AppleWebKit/537.36 (KHTML, like Gecko) Chrome/110.0.0.0 Mobile Safari/537.36",WebKit,Chrome,110.0.0.0,AndroidOS,10,null,null,fixation,,,
,,,,,image-button-response,13,215269,0.0-4.0-1.4,8,1,2023-03-14 18:17:39,95c447948bfde634df5be7bb21c2f1af,"Mozilla/5.0 (Linux; Android 10; MAR-LX1A) AppleWebKit/537.36 (KHTML, like Gecko) Chrome/110.0.0.0 Mobile Safari/537.36",WebKit,Chrome,110.0.0.0,AndroidOS,10,33366,3,response_1,Bombus pratorum,FALSE,
,,,,,html-keyboard-response,14,216036,0.0-4.0-0.5,8,1,2023-03-14 18:17:39,95c447948bfde634df5be7bb21c2f1af,"Mozilla/5.0 (Linux; Android 10; MAR-LX1A) AppleWebKit/537.36 (KHTML, like Gecko) Chrome/110.0.0.0 Mobile Safari/537.36",WebKit,Chrome,110.0.0.0,AndroidOS,10,null,null,fixation,,,
,,,,,image-button-response,15,236382,0.0-4.0-1.5,8,1,2023-03-14 18:17:39,95c447948bfde634df5be7bb21c2f1af,"Mozilla/5.0 (Linux; Android 10; MAR-LX1A) AppleWebKit/537.36 (KHTML, like Gecko) Chrome/110.0.0.0 Mobile Safari/537.36",WebKit,Chrome,110.0.0.0,AndroidOS,10,20311,1,response_1,Andrena flavipes,TRUE,
,,,,,html-button-response,16,238334,0.0-5.0,8,1,2023-03-14 18:17:39,95c447948bfde634df5be7bb21c2f1af,"Mozilla/5.0 (Linux; Android 10; MAR-LX1A) AppleWebKit/537.36 (KHTML, like Gecko) Chrome/110.0.0.0 Mobile Safari/537.36",WebKit,Chrome,110.0.0.0,AndroidOS,10,1936,0,,,,
,,,,,html-keyboard-response,17,239093,0.0-6.0-0.0,8,1,2023-03-14 18:17:39,95c447948bfde634df5be7bb21c2f1af,"Mozilla/5.0 (Linux; Android 10; MAR-LX1A) AppleWebKit/537.36 (KHTML, like Gecko) Chrome/110.0.0.0 Mobile Safari/537.36",WebKit,Chrome,110.0.0.0,AndroidOS,10,null,null,fixation,,,
,,,,,image-button-response,18,264083,0.0-6.0-1.0,8,1,2023-03-14 18:17:39,95c447948bfde634df5be7bb21c2f1af,"Mozilla/5.0 (Linux; Android 10; MAR-LX1A) AppleWebKit/537.36 (KHTML, like Gecko) Chrome/110.0.0.0 Mobile Safari/537.36",WebKit,Chrome,110.0.0.0,AndroidOS,10,24955,1,response_pred,Andrena bicolor,FALSE,Andrena bicolor
,,,,,html-keyboard-response,19,264348,0.0-6.0-0.1,8,1,2023-03-14 18:17:39,95c447948bfde634df5be7bb21c2f1af,"Mozilla/5.0 (Linux; Android 10; MAR-LX1A) AppleWebKit/537.36 (KHTML, like Gecko) Chrome/110.0.0.0 Mobile Safari/537.36",WebKit,Chrome,110.0.0.0,AndroidOS,10,null,null,fixation,,,
,,,,,image-button-response,20,273277,0.0-6.0-1.1,8,1,2023-03-14 18:17:39,95c447948bfde634df5be7bb21c2f1af,"Mozilla/5.0 (Linux; Android 10; MAR-LX1A) AppleWebKit/537.36 (KHTML, like Gecko) Chrome/110.0.0.0 Mobile Safari/537.36",WebKit,Chrome,110.0.0.0,AndroidOS,10,8897,3,response_pred,Bombus lucorum,FALSE,Bombus hortorum
,,,,,html-keyboard-response,21,274036,0.0-6.0-0.2,8,1,2023-03-14 18:17:39,95c447948bfde634df5be7bb21c2f1af,"Mozilla/5.0 (Linux; Android 10; MAR-LX1A) AppleWebKit/537.36 (KHTML, like Gecko) Chrome/110.0.0.0 Mobile Safari/537.36",WebKit,Chrome,110.0.0.0,AndroidOS,10,null,null,fixation,,,
,,,,,image-button-response,22,290484,0.0-6.0-1.2,8,1,2023-03-14 18:17:39,95c447948bfde634df5be7bb21c2f1af,"Mozilla/5.0 (Linux; Android 10; MAR-LX1A) AppleWebKit/537.36 (KHTML, like Gecko) Chrome/110.0.0.0 Mobile Safari/537.36",WebKit,Chrome,110.0.0.0,AndroidOS,10,16407,4,response_pred,Bombus hortorum,FALSE,Bombus pratorum
,,,,,html-keyboard-response,23,290748,0.0-6.0-0.3,8,1,2023-03-14 18:17:39,95c447948bfde634df5be7bb21c2f1af,"Mozilla/5.0 (Linux; Android 10; MAR-LX1A) AppleWebKit/537.36 (KHTML, like Gecko) Chrome/110.0.0.0 Mobile Safari/537.36",WebKit,Chrome,110.0.0.0,AndroidOS,10,null,null,fixation,,,
,,,,,image-button-response,24,306270,0.0-6.0-1.3,8,1,2023-03-14 18:17:39,95c447948bfde634df5be7bb21c2f1af,"Mozilla/5.0 (Linux; Android 10; MAR-LX1A) AppleWebKit/537.36 (KHTML, like Gecko) Chrome/110.0.0.0 Mobile Safari/537.36",WebKit,Chrome,110.0.0.0,AndroidOS,10,15487,5,response_pred,Andrena flavipes,FALSE,Andrena flavipes
,,,,,html-keyboard-response,25,307028,0.0-6.0-0.4,8,1,2023-03-14 18:17:39,95c447948bfde634df5be7bb21c2f1af,"Mozilla/5.0 (Linux; Android 10; MAR-LX1A) AppleWebKit/537.36 (KHTML, like Gecko) Chrome/110.0.0.0 Mobile Safari/537.36",WebKit,Chrome,110.0.0.0,AndroidOS,10,null,null,fixation,,,
,,,,,image-button-response,26,326130,0.0-6.0-1.4,8,1,2023-03-14 18:17:39,95c447948bfde634df5be7bb21c2f1af,"Mozilla/5.0 (Linux; Android 10; MAR-LX1A) AppleWebKit/537.36 (KHTML, like Gecko) Chrome/110.0.0.0 Mobile Safari/537.36",WebKit,Chrome,110.0.0.0,AndroidOS,10,19061,1,response_pred,Bombus pratorum,FALSE,Bombus lucorum
,,,,,html-keyboard-response,27,326645,0.0-6.0-0.5,8,1,2023-03-14 18:17:39,95c447948bfde634df5be7bb21c2f1af,"Mozilla/5.0 (Linux; Android 10; MAR-LX1A) AppleWebKit/537.36 (KHTML, like Gecko) Chrome/110.0.0.0 Mobile Safari/537.36",WebKit,Chrome,110.0.0.0,AndroidOS,10,null,null,fixation,,,
,,,,,image-button-response,28,339773,0.0-6.0-1.5,8,1,2023-03-14 18:17:39,95c447948bfde634df5be7bb21c2f1af,"Mozilla/5.0 (Linux; Android 10; MAR-LX1A) AppleWebKit/537.36 (KHTML, like Gecko) Chrome/110.0.0.0 Mobile Safari/537.36",WebKit,Chrome,110.0.0.0,AndroidOS,10,13089,2,response_pred,Andrena fulva,TRUE,Andrena fulva
,,,,,html-button-response,29,341061,0.0-7.0,8,1,2023-03-14 18:17:39,95c447948bfde634df5be7bb21c2f1af,"Mozilla/5.0 (Linux; Android 10; MAR-LX1A) AppleWebKit/537.36 (KHTML, like Gecko) Chrome/110.0.0.0 Mobile Safari/537.36",WebKit,Chrome,110.0.0.0,AndroidOS,10,1279,0,,,,
,,,,,html-keyboard-response,30,341324,0.0-8.0-0.0,8,1,2023-03-14 18:17:39,95c447948bfde634df5be7bb21c2f1af,"Mozilla/5.0 (Linux; Android 10; MAR-LX1A) AppleWebKit/537.36 (KHTML, like Gecko) Chrome/110.0.0.0 Mobile Safari/537.36",WebKit,Chrome,110.0.0.0,AndroidOS,10,null,null,fixation,,,
,,,,,image-button-response,31,361364,0.0-8.0-1.0,8,1,2023-03-14 18:17:39,95c447948bfde634df5be7bb21c2f1af,"Mozilla/5.0 (Linux; Android 10; MAR-LX1A) AppleWebKit/537.36 (KHTML, like Gecko) Chrome/110.0.0.0 Mobile Safari/537.36",WebKit,Chrome,110.0.0.0,AndroidOS,10,20013,2,response_2,Andrena flavipes,FALSE,
,,,,,html-keyboard-response,32,362124,0.0-8.0-0.1,8,1,2023-03-14 18:17:39,95c447948bfde634df5be7bb21c2f1af,"Mozilla/5.0 (Linux; Android 10; MAR-LX1A) AppleWebKit/537.36 (KHTML, like Gecko) Chrome/110.0.0.0 Mobile Safari/537.36",WebKit,Chrome,110.0.0.0,AndroidOS,10,null,null,fixation,,,
,,,,,image-button-response,33,372977,0.0-8.0-1.1,8,1,2023-03-14 18:17:39,95c447948bfde634df5be7bb21c2f1af,"Mozilla/5.0 (Linux; Android 10; MAR-LX1A) AppleWebKit/537.36 (KHTML, like Gecko) Chrome/110.0.0.0 Mobile Safari/537.36",WebKit,Chrome,110.0.0.0,AndroidOS,10,10811,3,response_2,Bombus hortorum,TRUE,
,,,,,html-keyboard-response,34,373492,0.0-8.0-0.2,8,1,2023-03-14 18:17:39,95c447948bfde634df5be7bb21c2f1af,"Mozilla/5.0 (Linux; Android 10; MAR-LX1A) AppleWebKit/537.36 (KHTML, like Gecko) Chrome/110.0.0.0 Mobile Safari/537.36",WebKit,Chrome,110.0.0.0,AndroidOS,10,null,null,fixation,,,
,,,,,image-button-response,35,375533,0.0-8.0-1.2,8,1,2023-03-14 18:17:39,95c447948bfde634df5be7bb21c2f1af,"Mozilla/5.0 (Linux; Android 10; MAR-LX1A) AppleWebKit/537.36 (KHTML, like Gecko) Chrome/110.0.0.0 Mobile Safari/537.36",WebKit,Chrome,110.0.0.0,AndroidOS,10,2006,0,response_2,Andrena bicolor,TRUE,
,,,,,html-keyboard-response,36,376044,0.0-8.0-0.3,8,1,2023-03-14 18:17:39,95c447948bfde634df5be7bb21c2f1af,"Mozilla/5.0 (Linux; Android 10; MAR-LX1A) AppleWebKit/537.36 (KHTML, like Gecko) Chrome/110.0.0.0 Mobile Safari/537.36",WebKit,Chrome,110.0.0.0,AndroidOS,10,null,null,fixation,,,
,,,,,image-button-response,37,377950,0.0-8.0-1.3,8,1,2023-03-14 18:17:39,95c447948bfde634df5be7bb21c2f1af,"Mozilla/5.0 (Linux; Android 10; MAR-LX1A) AppleWebKit/537.36 (KHTML, like Gecko) Chrome/110.0.0.0 Mobile Safari/537.36",WebKit,Chrome,110.0.0.0,AndroidOS,10,1837,0,response_2,Andrena fulva,FALSE,
,,,,,html-keyboard-response,38,378460,0.0-8.0-0.4,8,1,2023-03-14 18:17:39,95c447948bfde634df5be7bb21c2f1af,"Mozilla/5.0 (Linux; Android 10; MAR-LX1A) AppleWebKit/537.36 (KHTML, like Gecko) Chrome/110.0.0.0 Mobile Safari/537.36",WebKit,Chrome,110.0.0.0,AndroidOS,10,null,null,fixation,,,
,,,,,image-button-response,39,388720,0.0-8.0-1.4,8,1,2023-03-14 18:17:39,95c447948bfde634df5be7bb21c2f1af,"Mozilla/5.0 (Linux; Android 10; MAR-LX1A) AppleWebKit/537.36 (KHTML, like Gecko) Chrome/110.0.0.0 Mobile Safari/537.36",WebKit,Chrome,110.0.0.0,AndroidOS,10,10231,2,response_2,Andrena fulva,TRUE,
,,,,,html-keyboard-response,40,389236,0.0-8.0-0.5,8,1,2023-03-14 18:17:39,95c447948bfde634df5be7bb21c2f1af,"Mozilla/5.0 (Linux; Android 10; MAR-LX1A) AppleWebKit/537.36 (KHTML, like Gecko) Chrome/110.0.0.0 Mobile Safari/537.36",WebKit,Chrome,110.0.0.0,AndroidOS,10,null,null,fixation,,,
,,,,,image-button-response,41,396720,0.0-8.0-1.5,8,1,2023-03-14 18:17:39,95c447948bfde634df5be7bb21c2f1af,"Mozilla/5.0 (Linux; Android 10; MAR-LX1A) AppleWebKit/537.36 (KHTML, like Gecko) Chrome/110.0.0.0 Mobile Safari/537.36",WebKit,Chrome,110.0.0.0,AndroidOS,10,7441,1,response_2,Bombus lucorum,FALSE,
,,,,,html-button-response,42,397663,0.0-9.0,8,1,2023-03-14 18:17:39,95c447948bfde634df5be7bb21c2f1af,"Mozilla/5.0 (Linux; Android 10; MAR-LX1A) AppleWebKit/537.36 (KHTML, like Gecko) Chrome/110.0.0.0 Mobile Safari/537.36",WebKit,Chrome,110.0.0.0,AndroidOS,10,933,0,,,,
,,,,,html-button-response,43,398487,0.0-10.0,8,1,2023-03-14 18:17:39,95c447948bfde634df5be7bb21c2f1af,"Mozilla/5.0 (Linux; Android 10; MAR-LX1A) AppleWebKit/537.36 (KHTML, like Gecko) Chrome/110.0.0.0 Mobile Safari/537.36",WebKit,Chrome,110.0.0.0,AndroidOS,10,814,0,,,,
TRUE,FALSE,[],[],[],preload,0,1729,0.0-0.0,17,1,2023-03-15 9:09:20,95c447948bfde634df5be7bb21c2f1af,Mozilla/5.0 (X11; Linux x86_64; rv:109.0) Gecko/20100101 Firefox/113.0,,Firefox,113,Linux,,,,,,,
,,,,,html-button-response,1,4562,0.0-1.0,17,1,2023-03-15 9:09:20,95c447948bfde634df5be7bb21c2f1af,Mozilla/5.0 (X11; Linux x86_64; rv:109.0) Gecko/20100101 Firefox/113.0,,Firefox,113,Linux,,2826,0,,,,
,,,,,html-button-response,2,66998,0.0-2.0,17,1,2023-03-15 9:09:20,95c447948bfde634df5be7bb21c2f1af,Mozilla/5.0 (X11; Linux x86_64; rv:109.0) Gecko/20100101 Firefox/113.0,,Firefox,113,Linux,,62427,0,,,,
,,,,,html-button-response,3,235706,0.0-3.0,17,1,2023-03-15 9:09:20,95c447948bfde634df5be7bb21c2f1af,Mozilla/5.0 (X11; Linux x86_64; rv:109.0) Gecko/20100101 Firefox/113.0,,Firefox,113,Linux,,168696,0,,,,
,,,,,html-keyboard-response,4,236965,0.0-4.0-0.0,17,1,2023-03-15 9:09:20,95c447948bfde634df5be7bb21c2f1af,Mozilla/5.0 (X11; Linux x86_64; rv:109.0) Gecko/20100101 Firefox/113.0,,Firefox,113,Linux,,null,null,fixation,,,
,,,,,image-button-response,5,275187,0.0-4.0-1.0,17,1,2023-03-15 9:09:20,95c447948bfde634df5be7bb21c2f1af,Mozilla/5.0 (X11; Linux x86_64; rv:109.0) Gecko/20100101 Firefox/113.0,,Firefox,113,Linux,,38188,0,response_1,Andrena flavipes,FALSE,
,,,,,html-keyboard-response,6,275691,0.0-4.0-0.1,17,1,2023-03-15 9:09:20,95c447948bfde634df5be7bb21c2f1af,Mozilla/5.0 (X11; Linux x86_64; rv:109.0) Gecko/20100101 Firefox/113.0,,Firefox,113,Linux,,null,null,fixation,,,
,,,,,image-button-response,7,302302,0.0-4.0-1.1,17,1,2023-03-15 9:09:20,95c447948bfde634df5be7bb21c2f1af,Mozilla/5.0 (X11; Linux x86_64; rv:109.0) Gecko/20100101 Firefox/113.0,,Firefox,113,Linux,,26577,3,response_1,Andrena fulva,FALSE,
,,,,,html-keyboard-response,8,303056,0.0-4.0-0.2,17,1,2023-03-15 9:09:20,95c447948bfde634df5be7bb21c2f1af,Mozilla/5.0 (X11; Linux x86_64; rv:109.0) Gecko/20100101 Firefox/113.0,,Firefox,113,Linux,,null,null,fixation,,,
,,,,,image-button-response,9,318201,0.0-4.0-1.2,17,1,2023-03-15 9:09:20,95c447948bfde634df5be7bb21c2f1af,Mozilla/5.0 (X11; Linux x86_64; rv:109.0) Gecko/20100101 Firefox/113.0,,Firefox,113,Linux,,15133,5,response_1,Bombus pratorum,TRUE,
,,,,,html-keyboard-response,10,318705,0.0-4.0-0.3,17,1,2023-03-15 9:09:20,95c447948bfde634df5be7bb21c2f1af,Mozilla/5.0 (X11; Linux x86_64; rv:109.0) Gecko/20100101 Firefox/113.0,,Firefox,113,Linux,,null,null,fixation,,,
,,,,,image-button-response,11,335415,0.0-4.0-1.3,17,1,2023-03-15 9:09:20,95c447948bfde634df5be7bb21c2f1af,Mozilla/5.0 (X11; Linux x86_64; rv:109.0) Gecko/20100101 Firefox/113.0,,Firefox,113,Linux,,16698,3,response_1,Bombus hortorum,TRUE,
,,,,,html-keyboard-response,12,335921,0.0-4.0-0.4,17,1,2023-03-15 9:09:20,95c447948bfde634df5be7bb21c2f1af,Mozilla/5.0 (X11; Linux x86_64; rv:109.0) Gecko/20100101 Firefox/113.0,,Firefox,113,Linux,,null,null,fixation,,,
,,,,,image-button-response,13,354205,0.0-4.0-1.4,17,1,2023-03-15 9:09:20,95c447948bfde634df5be7bb21c2f1af,Mozilla/5.0 (X11; Linux x86_64; rv:109.0) Gecko/20100101 Firefox/113.0,,Firefox,113,Linux,,18276,4,response_1,Bombus lucorum,TRUE,
,,,,,html-keyboard-response,14,354458,0.0-4.0-0.5,17,1,2023-03-15 9:09:20,95c447948bfde634df5be7bb21c2f1af,Mozilla/5.0 (X11; Linux x86_64; rv:109.0) Gecko/20100101 Firefox/113.0,,Firefox,113,Linux,,null,null,fixation,,,
,,,,,image-button-response,15,370728,0.0-4.0-1.5,17,1,2023-03-15 9:09:20,95c447948bfde634df5be7bb21c2f1af,Mozilla/5.0 (X11; Linux x86_64; rv:109.0) Gecko/20100101 Firefox/113.0,,Firefox,113,Linux,,16264,0,response_1,Andrena bicolor,TRUE,
,,,,,html-button-response,16,378612,0.0-5.0,17,1,2023-03-15 9:09:20,95c447948bfde634df5be7bb21c2f1af,Mozilla/5.0 (X11; Linux x86_64; rv:109.0) Gecko/20100101 Firefox/113.0,,Firefox,113,Linux,,7880,0,,,,
,,,,,html-keyboard-response,17,379114,0.0-6.0-0.0,17,1,2023-03-15 9:09:20,95c447948bfde634df5be7bb21c2f1af,Mozilla/5.0 (X11; Linux x86_64; rv:109.0) Gecko/20100101 Firefox/113.0,,Firefox,113,Linux,,null,null,fixation,,,
,,,,,image-button-response,18,395501,0.0-6.0-1.0,17,1,2023-03-15 9:09:20,95c447948bfde634df5be7bb21c2f1af,Mozilla/5.0 (X11; Linux x86_64; rv:109.0) Gecko/20100101 Firefox/113.0,,Firefox,113,Linux,,16353,3,response_pred,Bombus hortorum,TRUE,Bombus pratorum
,,,,,html-keyboard-response,19,395754,0.0-6.0-0.1,17,1,2023-03-15 9:09:20,95c447948bfde634df5be7bb21c2f1af,Mozilla/5.0 (X11; Linux x86_64; rv:109.0) Gecko/20100101 Firefox/113.0,,Firefox,113,Linux,,null,null,fixation,,,
,,,,,image-button-response,20,413877,0.0-6.0-1.1,17,1,2023-03-15 9:09:20,95c447948bfde634df5be7bb21c2f1af,Mozilla/5.0 (X11; Linux x86_64; rv:109.0) Gecko/20100101 Firefox/113.0,,Firefox,113,Linux,,18107,1,response_pred,Andrena bicolor,FALSE,Andrena bicolor
,,,,,html-keyboard-response,21,414130,0.0-6.0-0.2,17,1,2023-03-15 9:09:20,95c447948bfde634df5be7bb21c2f1af,Mozilla/5.0 (X11; Linux x86_64; rv:109.0) Gecko/20100101 Firefox/113.0,,Firefox,113,Linux,,null,null,fixation,,,
,,,,,image-button-response,22,419071,0.0-6.0-1.2,17,1,2023-03-15 9:09:20,95c447948bfde634df5be7bb21c2f1af,Mozilla/5.0 (X11; Linux x86_64; rv:109.0) Gecko/20100101 Firefox/113.0,,Firefox,113,Linux,,4927,2,response_pred,Andrena fulva,TRUE,Andrena fulva
,,,,,html-keyboard-response,23,419575,0.0-6.0-0.3,17,1,2023-03-15 9:09:20,95c447948bfde634df5be7bb21c2f1af,Mozilla/5.0 (X11; Linux x86_64; rv:109.0) Gecko/20100101 Firefox/113.0,,Firefox,113,Linux,,null,null,fixation,,,
,,,,,image-button-response,24,425013,0.0-6.0-1.3,17,1,2023-03-15 9:09:20,95c447948bfde634df5be7bb21c2f1af,Mozilla/5.0 (X11; Linux x86_64; rv:109.0) Gecko/20100101 Firefox/113.0,,Firefox,113,Linux,,5427,4,response_pred,Bombus pratorum,FALSE,Bombus lucorum
,,,,,html-keyboard-response,25,425766,0.0-6.0-0.4,17,1,2023-03-15 9:09:20,95c447948bfde634df5be7bb21c2f1af,Mozilla/5.0 (X11; Linux x86_64; rv:109.0) Gecko/20100101 Firefox/113.0,,Firefox,113,Linux,,null,null,fixation,,,
,,,,,image-button-response,26,439988,0.0-6.0-1.4,17,1,2023-03-15 9:09:20,95c447948bfde634df5be7bb21c2f1af,Mozilla/5.0 (X11; Linux x86_64; rv:109.0) Gecko/20100101 Firefox/113.0,,Firefox,113,Linux,,14200,4,response_pred,Bombus lucorum,TRUE,Bombus hortorum
,,,,,html-keyboard-response,27,440242,0.0-6.0-0.5,17,1,2023-03-15 9:09:20,95c447948bfde634df5be7bb21c2f1af,Mozilla/5.0 (X11; Linux x86_64; rv:109.0) Gecko/20100101 Firefox/113.0,,Firefox,113,Linux,,null,null,fixation,,,
,,,,,image-button-response,28,448111,0.0-6.0-1.5,17,1,2023-03-15 9:09:20,95c447948bfde634df5be7bb21c2f1af,Mozilla/5.0 (X11; Linux x86_64; rv:109.0) Gecko/20100101 Firefox/113.0,,Firefox,113,Linux,,7845,1,response_pred,Andrena flavipes,TRUE,Andrena flavipes
,,,,,html-button-response,29,455376,0.0-7.0,17,1,2023-03-15 9:09:20,95c447948bfde634df5be7bb21c2f1af,Mozilla/5.0 (X11; Linux x86_64; rv:109.0) Gecko/20100101 Firefox/113.0,,Firefox,113,Linux,,7258,0,,,,
,,,,,html-keyboard-response,30,455879,0.0-8.0-0.0,17,1,2023-03-15 9:09:20,95c447948bfde634df5be7bb21c2f1af,Mozilla/5.0 (X11; Linux x86_64; rv:109.0) Gecko/20100101 Firefox/113.0,,Firefox,113,Linux,,null,null,fixation,,,
,,,,,image-button-response,31,468607,0.0-8.0-1.0,17,1,2023-03-15 9:09:20,95c447948bfde634df5be7bb21c2f1af,Mozilla/5.0 (X11; Linux x86_64; rv:109.0) Gecko/20100101 Firefox/113.0,,Firefox,113,Linux,,12713,3,response_2,Bombus hortorum,TRUE,
,,,,,html-keyboard-response,32,469363,0.0-8.0-0.1,17,1,2023-03-15 9:09:20,95c447948bfde634df5be7bb21c2f1af,Mozilla/5.0 (X11; Linux x86_64; rv:109.0) Gecko/20100101 Firefox/113.0,,Firefox,113,Linux,,null,null,fixation,,,
,,,,,image-button-response,33,476966,0.0-8.0-1.1,17,1,2023-03-15 9:09:20,95c447948bfde634df5be7bb21c2f1af,Mozilla/5.0 (X11; Linux x86_64; rv:109.0) Gecko/20100101 Firefox/113.0,,Firefox,113,Linux,,7588,5,response_2,Andrena fulva,FALSE,
,,,,,html-keyboard-response,34,477471,0.0-8.0-0.2,17,1,2023-03-15 9:09:20,95c447948bfde634df5be7bb21c2f1af,Mozilla/5.0 (X11; Linux x86_64; rv:109.0) Gecko/20100101 Firefox/113.0,,Firefox,113,Linux,,null,null,fixation,,,
,,,,,image-button-response,35,487357,0.0-8.0-1.2,17,1,2023-03-15 9:09:20,95c447948bfde634df5be7bb21c2f1af,Mozilla/5.0 (X11; Linux x86_64; rv:109.0) Gecko/20100101 Firefox/113.0,,Firefox,113,Linux,,9864,2,response_2,Andrena bicolor,FALSE,
,,,,,html-keyboard-response,36,488111,0.0-8.0-0.3,17,1,2023-03-15 9:09:20,95c447948bfde634df5be7bb21c2f1af,Mozilla/5.0 (X11; Linux x86_64; rv:109.0) Gecko/20100101 Firefox/113.0,,Firefox,113,Linux,,null,null,fixation,,,
,,,,,image-button-response,37,496217,0.0-8.0-1.3,17,1,2023-03-15 9:09:20,95c447948bfde634df5be7bb21c2f1af,Mozilla/5.0 (X11; Linux x86_64; rv:109.0) Gecko/20100101 Firefox/113.0,,Firefox,113,Linux,,8093,1,response_2,Andrena flavipes,TRUE,
,,,,,html-keyboard-response,38,496721,0.0-8.0-0.4,17,1,2023-03-15 9:09:20,95c447948bfde634df5be7bb21c2f1af,Mozilla/5.0 (X11; Linux x86_64; rv:109.0) Gecko/20100101 Firefox/113.0,,Firefox,113,Linux,,null,null,fixation,,,
,,,,,image-button-response,39,527981,0.0-8.0-1.4,17,1,2023-03-15 9:09:20,95c447948bfde634df5be7bb21c2f1af,Mozilla/5.0 (X11; Linux x86_64; rv:109.0) Gecko/20100101 Firefox/113.0,,Firefox,113,Linux,,31247,4,response_2,Bombus pratorum,FALSE,
,,,,,html-keyboard-response,40,528237,0.0-8.0-0.5,17,1,2023-03-15 9:09:20,95c447948bfde634df5be7bb21c2f1af,Mozilla/5.0 (X11; Linux x86_64; rv:109.0) Gecko/20100101 Firefox/113.0,,Firefox,113,Linux,,null,null,fixation,,,
,,,,,image-button-response,41,540878,0.0-8.0-1.5,17,1,2023-03-15 9:09:20,95c447948bfde634df5be7bb21c2f1af,Mozilla/5.0 (X11; Linux x86_64; rv:109.0) Gecko/20100101 Firefox/113.0,,Firefox,113,Linux,,12605,5,response_2,Bombus lucorum,FALSE,
,,,,,html-button-response,42,543738,0.0-9.0,17,1,2023-03-15 9:09:20,95c447948bfde634df5be7bb21c2f1af,Mozilla/5.0 (X11; Linux x86_64; rv:109.0) Gecko/20100101 Firefox/113.0,,Firefox,113,Linux,,2855,0,,,,
,,,,,html-button-response,43,544982,0.0-10.0,17,1,2023-03-15 9:09:20,95c447948bfde634df5be7bb21c2f1af,Mozilla/5.0 (X11; Linux x86_64; rv:109.0) Gecko/20100101 Firefox/113.0,,Firefox,113,Linux,,1240,0,,,,
TRUE,FALSE,[],[],[],preload,0,666,0.0-0.0,19,1,2023-03-15 11:50:13,95c447948bfde634df5be7bb21c2f1af,"Mozilla/5.0 (Macintosh; Intel Mac OS X 10_15_7) AppleWebKit/537.36 (KHTML, like Gecko) Chrome/111.0.0.0 Safari/537.36",Macintosh,Chrome,111.0.0.0,OS X,10_15_7,,,,,,
,,,,,html-button-response,1,7408,0.0-1.0,19,1,2023-03-15 11:50:13,95c447948bfde634df5be7bb21c2f1af,"Mozilla/5.0 (Macintosh; Intel Mac OS X 10_15_7) AppleWebKit/537.36 (KHTML, like Gecko) Chrome/111.0.0.0 Safari/537.36",Macintosh,Chrome,111.0.0.0,OS X,10_15_7,6740,0,,,,
,,,,,html-button-response,2,54476,0.0-2.0,19,1,2023-03-15 11:50:13,95c447948bfde634df5be7bb21c2f1af,"Mozilla/5.0 (Macintosh; Intel Mac OS X 10_15_7) AppleWebKit/537.36 (KHTML, like Gecko) Chrome/111.0.0.0 Safari/537.36",Macintosh,Chrome,111.0.0.0,OS X,10_15_7,47066,0,,,,
,,,,,html-button-response,3,156261,0.0-3.0,19,1,2023-03-15 11:50:13,95c447948bfde634df5be7bb21c2f1af,"Mozilla/5.0 (Macintosh; Intel Mac OS X 10_15_7) AppleWebKit/537.36 (KHTML, like Gecko) Chrome/111.0.0.0 Safari/537.36",Macintosh,Chrome,111.0.0.0,OS X,10_15_7,101780,0,,,,
,,,,,html-keyboard-response,4,157537,0.0-4.0-0.0,19,1,2023-03-15 11:50:13,95c447948bfde634df5be7bb21c2f1af,"Mozilla/5.0 (Macintosh; Intel Mac OS X 10_15_7) AppleWebKit/537.36 (KHTML, like Gecko) Chrome/111.0.0.0 Safari/537.36",Macintosh,Chrome,111.0.0.0,OS X,10_15_7,null,null,fixation,,,
,,,,,image-button-response,5,201513,0.0-4.0-1.0,19,1,2023-03-15 11:50:13,95c447948bfde634df5be7bb21c2f1af,"Mozilla/5.0 (Macintosh; Intel Mac OS X 10_15_7) AppleWebKit/537.36 (KHTML, like Gecko) Chrome/111.0.0.0 Safari/537.36",Macintosh,Chrome,111.0.0.0,OS X,10_15_7,43965,4,response_1,Bombus lucorum,TRUE,
,,,,,html-keyboard-response,6,202267,0.0-4.0-0.1,19,1,2023-03-15 11:50:13,95c447948bfde634df5be7bb21c2f1af,"Mozilla/5.0 (Macintosh; Intel Mac OS X 10_15_7) AppleWebKit/537.36 (KHTML, like Gecko) Chrome/111.0.0.0 Safari/537.36",Macintosh,Chrome,111.0.0.0,OS X,10_15_7,null,null,fixation,,,
,,,,,image-button-response,7,221810,0.0-4.0-1.1,19,1,2023-03-15 11:50:13,95c447948bfde634df5be7bb21c2f1af,"Mozilla/5.0 (Macintosh; Intel Mac OS X 10_15_7) AppleWebKit/537.36 (KHTML, like Gecko) Chrome/111.0.0.0 Safari/537.36",Macintosh,Chrome,111.0.0.0,OS X,10_15_7,19544,0,response_1,Bombus lucorum,FALSE,
,,,,,html-keyboard-response,8,222575,0.0-4.0-0.2,19,1,2023-03-15 11:50:13,95c447948bfde634df5be7bb21c2f1af,"Mozilla/5.0 (Macintosh; Intel Mac OS X 10_15_7) AppleWebKit/537.36 (KHTML, like Gecko) Chrome/111.0.0.0 Safari/537.36",Macintosh,Chrome,111.0.0.0,OS X,10_15_7,null,null,fixation,,,
,,,,,image-button-response,9,232782,0.0-4.0-1.2,19,1,2023-03-15 11:50:13,95c447948bfde634df5be7bb21c2f1af,"Mozilla/5.0 (Macintosh; Intel Mac OS X 10_15_7) AppleWebKit/537.36 (KHTML, like Gecko) Chrome/111.0.0.0 Safari/537.36",Macintosh,Chrome,111.0.0.0,OS X,10_15_7,10214,2,response_1,Andrena bicolor,FALSE,
,,,,,html-keyboard-response,10,233548,0.0-4.0-0.3,19,1,2023-03-15 11:50:13,95c447948bfde634df5be7bb21c2f1af,"Mozilla/5.0 (Macintosh; Intel Mac OS X 10_15_7) AppleWebKit/537.36 (KHTML, like Gecko) Chrome/111.0.0.0 Safari/537.36",Macintosh,Chrome,111.0.0.0,OS X,10_15_7,null,null,fixation,,,
,,,,,image-button-response,11,239627,0.0-4.0-1.3,19,1,2023-03-15 11:50:13,95c447948bfde634df5be7bb21c2f1af,"Mozilla/5.0 (Macintosh; Intel Mac OS X 10_15_7) AppleWebKit/537.36 (KHTML, like Gecko) Chrome/111.0.0.0 Safari/537.36",Macintosh,Chrome,111.0.0.0,OS X,10_15_7,6079,3,response_1,Andrena flavipes,FALSE,
,,,,,html-keyboard-response,12,240381,0.0-4.0-0.4,19,1,2023-03-15 11:50:13,95c447948bfde634df5be7bb21c2f1af,"Mozilla/5.0 (Macintosh; Intel Mac OS X 10_15_7) AppleWebKit/537.36 (KHTML, like Gecko) Chrome/111.0.0.0 Safari/537.36",Macintosh,Chrome,111.0.0.0,OS X,10_15_7,null,null,fixation,,,
,,,,,image-button-response,13,263753,0.0-4.0-1.4,19,1,2023-03-15 11:50:13,95c447948bfde634df5be7bb21c2f1af,"Mozilla/5.0 (Macintosh; Intel Mac OS X 10_15_7) AppleWebKit/537.36 (KHTML, like Gecko) Chrome/111.0.0.0 Safari/537.36",Macintosh,Chrome,111.0.0.0,OS X,10_15_7,23374,0,response_1,Andrena flavipes,FALSE,
,,,,,html-keyboard-response,14,264265,0.0-4.0-0.5,19,1,2023-03-15 11:50:13,95c447948bfde634df5be7bb21c2f1af,"Mozilla/5.0 (Macintosh; Intel Mac OS X 10_15_7) AppleWebKit/537.36 (KHTML, like Gecko) Chrome/111.0.0.0 Safari/537.36",Macintosh,Chrome,111.0.0.0,OS X,10_15_7,null,null,fixation,,,
,,,,,image-button-response,15,275235,0.0-4.0-1.5,19,1,2023-03-15 11:50:13,95c447948bfde634df5be7bb21c2f1af,"Mozilla/5.0 (Macintosh; Intel Mac OS X 10_15_7) AppleWebKit/537.36 (KHTML, like Gecko) Chrome/111.0.0.0 Safari/537.36",Macintosh,Chrome,111.0.0.0,OS X,10_15_7,10968,4,response_1,Bombus pratorum,FALSE,
,,,,,html-button-response,16,294003,0.0-5.0,19,1,2023-03-15 11:50:13,95c447948bfde634df5be7bb21c2f1af,"Mozilla/5.0 (Macintosh; Intel Mac OS X 10_15_7) AppleWebKit/537.36 (KHTML, like Gecko) Chrome/111.0.0.0 Safari/537.36",Macintosh,Chrome,111.0.0.0,OS X,10_15_7,18765,0,,,,
,,,,,html-keyboard-response,17,294755,0.0-6.0-0.0,19,1,2023-03-15 11:50:13,95c447948bfde634df5be7bb21c2f1af,"Mozilla/5.0 (Macintosh; Intel Mac OS X 10_15_7) AppleWebKit/537.36 (KHTML, like Gecko) Chrome/111.0.0.0 Safari/537.36",Macintosh,Chrome,111.0.0.0,OS X,10_15_7,null,null,fixation,,,
,,,,,image-button-response,18,304668,0.0-6.0-1.0,19,1,2023-03-15 11:50:13,95c447948bfde634df5be7bb21c2f1af,"Mozilla/5.0 (Macintosh; Intel Mac OS X 10_15_7) AppleWebKit/537.36 (KHTML, like Gecko) Chrome/111.0.0.0 Safari/537.36",Macintosh,Chrome,111.0.0.0,OS X,10_15_7,9911,4,response_pred,Bombus hortorum,FALSE,Bombus pratorum
